UPTIMENANO,Ax,Ay,Az
128772816555612,-0.38444263,-0.25761732,9.850986
128772836414690,-0.92447644,-0.60465485,10.491691
128772856270179,-1.5506606,-1.1651411,11.38523
128772876125666,-1.294002,-0.98557657,11.658057
128772895981282,-0.69930923,-0.3180072,11.159739
128772915836771,-0.31264907,-0.296032,10.738768
128772935692258,-0.75724655,-1.1206561,11.035769
128772955542766,-0.96375126,-1.617305,11.501167
128772975398255,-0.5454754,-0.86081135,10.488323
128772995253614,-0.2760607,0.3801582,9.052655
128773015109102,-0.0731542,0.9825423,8.578447
128773034964591,0.23377612,0.26837003,9.168036
128773054811990,0.9375181,-0.93828636,9.718598
128773074667350,2.4195182,-0.37406293,8.566577
128773094522711,0.12694524,0.18959166,7.853014
128773114378070,-4.6403117,0.12823275,6.4635153
128773134232869,-2.1761403,-0.5476304,7.1499696
128773154088230,0.03726455,0.5465374,8.23846
128773173943717,0.76493317,0.47082937,9.381336
128773193799077,0.4388735,0.09403888,10.00936
128773213654438,0.35944337,-0.32204616,9.546184
128773233509797,-0.54518336,-0.31809035,9.134388
128773253354929,-0.75442904,-0.16652435,9.42426
128773273210162,-0.2753444,-0.0972444,9.981449
128773293065393,-1.0983634,-1.0562927,10.847564
128773312920625,-2.0515983,-2.6941674,12.263288
128773332775858,-2.532512,-2.4380784,11.480474
128773352624964,-0.62881184,1.8561349,8.776845
128773372480068,1.6128459,2.1560345,10.604855
128773392335045,0.24623708,-0.990439,13.67653
128773412190148,-1.7334933,-2.641459,13.60343
128773432045252,-0.50086415,-1.6495568,12.576711
128773451900357,-0.12405068,-0.89827496,11.438755
128773471758253,0.6519852,0.038461294,10.152389
128773491613357,0.70026976,0.5063666,9.679699
128773511468462,-1.4840378,-0.8682848,10.545131
128773531323565,-2.3808792,-2.1733997,10.755469
128773551163571,-1.1708825,-1.9462208,11.367764
128773571018292,0.9902967,-1.4089512,12.418439
128773590872883,1.6713042,0.43216962,10.41853
128773610727475,0.9642059,1.5253766,8.954825
128773630582196,0.49155563,2.1636221,8.760489
128773650435544,-0.1629242,1.6523992,8.66176
128773670290008,0.28119624,2.1192975,8.414092
128773690144601,1.013971,2.09134,9.167894
128773709999192,0.9990776,1.0015587,8.407438
128773729853656,-0.57266355,0.86881167,7.0685863
128773749708249,-0.74460757,3.3366954,6.793178
128773769560312,0.26784793,2.322917,7.2797747
128773789414776,-1.0939819,2.5738583,7.914883
128773809269241,0.8861309,2.6262963,8.458495
128773829123704,-0.70365894,1.0091255,9.438021
128773848975864,-0.91128975,0.431918,9.920382
128773868830329,-0.52738583,0.68956727,10.269295
128773888684664,-0.5197628,0.6984128,10.707458
128773908539128,-1.769622,0.16316034,10.568111
128773928393465,-1.646035,0.94422084,10.105544
128773948247928,-1.1859108,0.987219,10.302529
128773968106554,-1.5254165,0.019572714,10.301053
128773987961147,-2.50208,0.22526617,10.073112
128774007815610,-2.918174,-0.3493811,10.568734
128774027670074,-2.4013445,-1.8160056,11.745567
128774047524539,-1.5435357,-3.3178844,11.709232
128774067379581,-1.4938085,-4.2489433,11.462472
128774087234045,-1.4518571,-5.545657,10.833492
128774107088510,-1.2219418,-6.2814317,9.9179735
128774126943101,-1.2291179,-5.7075768,9.307045
128774146807740,-1.4913658,-5.2047906,8.7929
128774166662461,-1.3269465,-4.404755,8.351152
128774186517180,-0.5331435,-2.6496046,8.242662
128774206371900,1.319258,-1.2294319,8.013632
128774226226621,2.8500893,-0.58496684,8.127947
128774246081212,2.7808905,-0.23323502,8.520526
128774265932256,2.9389582,0.5937613,8.326809
128774285786849,3.3940506,1.5241913,8.167239
128774305641568,2.5967696,1.6662879,8.439665
128774325496160,1.5385164,1.3831894,7.6978974
128774345350881,-0.9237794,2.0747845,3.129845
128774365206941,1.4863019,5.1204057,10.07534
128774385061661,1.1407679,4.2807417,8.662111
128774404916382,0.20792761,2.3457415,6.98192
128774424771101,1.2575732,2.2001565,9.90076
128774444634659,-1.0630126,-0.08141989,10.419977
128774464489636,-0.030369978,-0.24678485,9.85414
128774484344611,1.8743026,1.684189,6.9488254
128774504199587,0.90966034,1.9904999,8.0464525
128774524054564,-0.16118419,0.2385972,11.347616
128774543909539,-0.4861423,-0.6940957,11.02137
128774563766988,-0.36272407,0.40226525,12.581729
128774583621965,0.16112354,0.69410163,13.692907
128774603476940,0.8762198,2.270474,13.453297
128774623332044,2.4787707,2.0624177,12.8538475
128774643187021,3.7867737,0.8378407,12.005567
128774663037900,4.952759,0.8861405,11.712327
128774682892748,6.1709023,2.0173428,12.020052
128774702747725,6.034374,2.4810963,12.223768
128774722602572,4.2245255,1.5086551,10.856004
128774742457548,2.712253,0.30028918,8.8467455
128774762312397,1.9837459,-0.8300368,7.8862753
128774782170371,-3.318768,-5.717235,4.628322
128774802025347,-16.227331,-13.980541,-2.4500072
128774821880324,0.9890961,1.2340639,6.8633437
128774841735299,13.0893135,5.345687,11.7957
128774861592805,6.4067936,1.1453106,10.64476
128774881447782,-4.578314,2.51478,7.5815916
128774901302757,-2.8432324,4.997503,8.72326
128774921157733,-1.3044261,1.6641206,3.157291
128774941012710,-0.7453613,2.2341368,1.1955707
128774960862324,-0.80843467,3.6648886,2.083921
128774980717172,0.41922995,3.1274683,1.0592493
128775000572149,2.0228424,2.7533069,0.95215803
128775020426996,2.557654,2.691197,1.3160741
128775040281844,3.2636695,2.811236,1.9110028
128775060136821,6.542745,2.9536695,3.3738532
128775079952252,8.495024,3.5017235,7.154375
128775099806460,8.061635,3.483239,10.222032
128775119660669,8.345002,3.814314,12.578987
128775139514876,6.6080174,1.7135916,17.458652
128775159374669,8.290225,0.75442696,20.865791
128775179229006,10.138589,0.7090766,21.70267
128775199083213,7.656236,-3.25452,22.244774
128775218937421,4.137401,-3.6238499,20.938995
128775238791758,3.443086,-2.0323658,19.343483
128775258643469,1.0845305,-3.5232394,18.343912
128775278497677,-0.059673563,-3.4545093,17.125698
128775298351886,0.29966003,-2.4954507,16.41766
128775318206093,-1.6689997,-2.4473264,14.887135
128775338060301,-3.036512,-2.8657224,12.68039
128775357914382,-3.7988079,4.8953247,10.407495
128775377772984,2.3547194,7.2584543,9.8523445
128775397627192,1.6838984,3.74998,11.200872
128775417481273,0.19802642,-2.2595775,14.346369
128775437335480,0.2789649,-4.2901187,14.300353
128775457197362,-1.5651364,-1.8430295,13.938077
128775477051699,0.6420945,2.9035013,9.398408
128775496906034,-0.8847048,-0.15493602,7.256095
128775516760242,-2.3013716,-2.069444,7.958935
128775536614579,-2.1271355,-0.8062894,7.605635
128775556468914,-2.1709774,-1.5094801,7.052027
128775576331747,-2.242161,-2.5475779,6.50381
128775596186212,-3.8519464,-5.080279,6.4802604
128775616040675,-3.7599788,-2.6305835,4.586317
128775635895139,-2.8307598,-0.5884344,2.460473
128775655749604,-2.4513934,0.0818161,1.4024867
128775675605530,-2.1313717,0.2329583,2.4403584
128775695459994,-2.258172,0.35914654,4.9829397
128775715314331,-1.930358,0.48184702,6.7114305
128775735168794,-2.6051583,0.7869629,8.107052
128775755031895,-1.6876016,2.1306612,8.746023
128775774886616,-2.5499141,2.9726253,10.857198
128775794741335,-3.2070103,2.4994144,11.45446
128775814595927,-1.3060095,2.2638252,10.063417
128775834450648,-1.0117441,4.197586,10.660793
128775854305367,-1.2701852,4.161988,11.368888
128775874163092,-1.8645755,3.0986564,12.477495
128775894017813,-3.1984813,1.2923106,16.941761
128775913872404,0.6065203,-3.1425972,18.89598
128775933727124,3.9300544,-1.3693682,15.336413
128775953581845,7.2399855,0.75992614,12.982535
128775973446048,7.538969,-1.3635536,13.267838
128775993300896,10.9096575,-1.047166,10.563964
128776013155873,0.26070285,8.552779,6.030262
128776033010720,-2.958941,4.23637,13.625086
128776052866080,-0.4601964,1.8301799,5.7270055
128776072721057,-3.6753004,-0.5666969,5.677561
128776092576032,-3.4087102,-4.2131324,9.606803
128776112431008,-1.686886,-6.2644024,11.86601
128776132285985,-0.7851919,-6.750183,12.251113
128776152140960,-6.9719915,-3.6514337,9.107202
128776171998880,-6.948296,-1.3218635,6.3605304
128776191853985,-1.7963567,4.9128523,5.4936366
128776211709088,4.0634785,7.193758,4.967013
128776231564192,2.7452705,2.066642,6.2676144
128776251419297,-0.19460788,-2.3781784,7.39772
128776271279040,-1.0980438,-1.3928746,7.870057
128776291134272,1.8532993,2.8556926,5.340756
128776310989505,-0.042516563,1.2080024,5.640087
128776330844736,-3.122045,-1.29446,6.918304
128776350707174,-5.4695563,-0.634293,8.69762
128776370562663,-5.1209373,0.96431243,8.551992
128776390418150,1.6986111,1.6602055,4.859307
128776410273638,6.9739156,-7.051911,6.80753
128776430129127,5.968683,-18.58403,13.991504
128776449984614,-18.470455,15.70968,25.125906
128776469846697,-12.712383,15.048301,20.025442
128776489702570,-1.4399529,1.1601622,7.597982
128776509558313,2.3806453,4.677387,4.464984
128776529414057,-2.8693502,5.2561536,4.883988
128776549269802,-5.6862774,0.36478913,7.213724
128776569127799,-2.896405,-3.9039528,10.166037
128776588984313,-0.9030096,-3.445339,10.541981
128776608840186,-1.9761367,-0.55810314,8.479369
128776628696185,-0.5315787,4.883194,9.055104
128776648552057,-2.4928157,6.0075326,15.81975
128776668407930,1.023767,7.9477425,18.919996
128776688244621,6.6728873,6.0518327,11.698889
128776708099853,1.4566213,3.1689317,5.418275
128776727955086,-0.045631643,-0.18473773,4.2697716
128776747810317,-3.01881,-3.8728566,6.0337625
128776767663952,-4.708754,-7.1591253,8.576031
128776787519185,-1.002898,-4.2179823,10.031344
128776807374416,-0.6118461,1.3837807,11.160819
128776827229648,3.202483,7.844118,11.872665
128776847084881,6.3762603,6.766328,10.397473
128776866925331,-1.0221832,0.9175573,9.979098
128776886780179,-4.756289,-3.5487738,10.106624
128776906635028,-3.8154943,-4.3210554,9.129787
128776926490003,-1.2483673,-1.9566557,8.153269
128776946344851,-0.4917628,0.43424416,8.679272
128776966199700,1.4461067,2.2960303,9.167597
128776986057357,0.38200122,1.6776456,9.016461
128777005912333,-0.6822823,-1.034256,9.022301
128777025767182,-0.68547297,-1.776203,8.746979
128777045622157,1.8148825,1.0617782,7.4183035
128777065475531,-2.672732,1.904321,11.852685
128777085330508,0.30973035,-2.5631325,10.116287
128777105185357,3.2090912,4.2894497,8.268751
128777125040334,-0.93773663,4.172525,12.397358
128777144895183,-0.45858464,-0.9988096,13.09148
128777164750155,1.3177042,0.0042049284,11.983949
128777184600005,1.3873606,0.23635377,10.332593
128777204454854,0.8367724,0.8281827,9.362596
128777224309701,0.42288426,1.0975152,8.429648
128777244164549,-1.141139,0.6496547,8.392116
128777264019398,-0.9067729,-0.77696526,8.291466
128777283874672,-0.74267507,-1.1618621,8.659363
128777303729520,0.011585695,0.11223269,9.605231
128777323584369,0.74986744,0.71935713,9.957243
128777343439088,0.6223515,0.2517795,9.608139
128777363299525,0.25662902,-0.1417066,9.552099
128777383154502,0.14862837,0.10119357,9.407845
128777403009349,0.3605344,-0.031897362,9.85877
128777422864197,0.11321141,0.7225047,10.392461
128777442719174,0.3906851,1.4984179,10.05158
128777462574023,0.48474455,1.3469205,9.600829
128777482432516,0.027790017,0.8056876,9.463691
128777502287365,-0.22493578,0.3364331,9.624994
128777522142338,-0.2771556,-0.0055397763,9.873904
128777541997314,-0.052676,-0.008833714,9.901318
128777561852291,0.48150578,0.5555023,9.515357
128777581708022,-0.36243185,0.15598693,9.437672
128777601563126,-0.7954048,-0.59604234,9.79078
128777621418103,0.16563371,0.18689376,9.391125
128777641273078,0.71418685,2.6656163,9.623561
128777661128077,0.09637905,1.2893895,10.303374
128777680983054,-0.24589242,0.059948802,9.748909
128777700838029,-0.17433143,-0.3495336,9.705952
128777720693005,-0.011235526,-1.0281945,9.685232
128777740547982,-0.5099478,-0.7826963,9.330102
128777760402957,-2.134586,-1.7868661,9.275387
128777780254166,-0.78367823,-1.2740746,9.53063
128777800109015,1.3671511,2.2055783,10.449309
128777819963862,1.4315093,1.8857893,9.52299
128777839818838,0.6874608,1.5445789,9.781846
128777859673687,-1.6841723,-0.6963349,10.06214
128777879525762,-0.041430734,0.9227621,9.568503
128777899380610,0.91430897,1.0934024,9.565714
128777919235459,0.39869606,1.2352817,9.881221
128777939090306,-0.4055926,0.7950746,10.018304
128777958946768,-0.6155904,-0.6191106,10.097375
128777978801745,-0.27081525,-0.4313511,9.829378
128777998656592,-0.36862928,-0.5152847,9.541953
128778018511440,-0.36636817,-0.589949,9.623352
128778038366289,0.06973461,-0.10753381,9.655615
128778058221264,0.28008813,0.20118046,9.727261
128778078078757,0.29397684,0.30288434,9.745023
128778097933606,0.028037349,0.22385393,9.864355
128778117788583,-0.06771504,0.11487654,9.83692
128778137643560,-0.0884357,0.079961315,9.734308
128778157498537,-0.12826258,0.020467775,9.641289
128778177354291,-0.058276974,-0.07764856,9.885038
128778197209267,0.14547189,0.06983557,10.097129
128778217064244,0.24965543,0.22255291,10.071575
128778236919219,0.12240522,0.47139576,9.929988
128778256774195,-0.024553929,0.58769697,9.760381
128778276629172,-0.18570334,0.63571906,9.627491
128778296477607,-0.18084498,0.77613956,9.744158
128778316332455,-0.16261016,0.8287074,9.799158
128778336187304,-0.18858105,0.6809276,9.880911
128778356042279,-0.19601813,0.62424,10.033687
128778375896885,-0.07550602,0.55207705,9.969457
128778395751734,-0.08353912,0.36210406,9.841058
128778415606709,-0.07107917,0.24113451,9.758273
128778435461557,0.06897874,0.21201877,9.846419
128778455316406,0.071416914,0.26009348,9.994834
128778475173039,-0.10864602,0.32507914,9.979244
128778495027887,-0.2561258,0.3389038,9.966123
128778514882736,-0.21254572,0.34807393,9.765294
128778534737583,-0.1781464,0.3576368,9.588083
128778554590645,-0.21644762,0.28110424,9.741084
128778574445494,-0.04698086,0.3070237,9.80955
128778594304251,0.17162924,0.4049163,9.856476
128778614159226,0.21583413,0.31555158,9.908747
128778634014203,0.12778817,0.18604317,10.102114
128778653869178,0.1354186,0.13758382,9.978382
128778673722350,0.046955653,0.03792364,9.556801
128778693577327,-0.06346371,-0.08301345,9.716958
128778713432174,0.11486946,0.091381826,9.979834
128778733287150,0.20745975,0.29591644,10.027927
128778753141999,0.15123308,0.3589966,10.002905
128778772985288,-0.09734987,0.25532565,9.821793
128778792840009,-0.18330988,0.14773114,9.737606
128778812694602,-0.073228955,0.13351426,9.950186
128778832549195,0.21653369,0.27592638,9.962818
128778852403788,0.2766082,0.33926538,9.920484
128778872258381,0.049819615,0.2992762,9.787055
128778892109066,-0.23566647,0.3580495,9.850747
128778911963659,-0.3250522,0.41299987,10.01153
128778931818124,-0.09856091,0.5010466,9.81117
128778951672717,0.009687357,0.34503162,9.723635
128778971530290,-0.003691762,0.12201896,9.712571
128778991384883,-0.023319203,0.13332658,9.707462
128779011239476,-0.0010166892,0.260126,9.9709635
128779031094069,0.04535615,0.3942986,10.043753
128779050948662,-0.06278429,0.37482768,9.853575
128779070803255,-0.102240026,0.32853258,9.680355
128779090656628,-0.0076649864,0.27876973,9.690789
128779110511221,-0.044012547,0.15716587,9.875682
128779130365814,-0.17769182,0.057278022,10.019985
128779150220407,-0.085669644,0.096976966,9.8991375
128779170075000,0.011160861,0.1465738,9.7907095
128779189933237,0.044428647,0.11137045,9.726445
128779209787958,0.032994073,0.083631024,9.884153
128779229642551,-0.029971816,0.079748176,10.170278
128779249497124,-0.022984847,0.23902328,9.823438
128779269355155,-0.16127339,0.27052724,9.776023
128779289210004,-0.2679937,0.255147,9.998414
128779309064723,0.005636848,0.5394554,9.725868
128779328919443,-0.070087224,0.5047147,9.951419
128779348774164,-0.17413443,0.44063163,10.028572
128779368628883,-0.16686414,0.4407718,9.676506
128779388486919,-0.115077265,0.43927434,9.603637
128779408341640,-0.05697094,0.3699361,9.842241
128779428196487,-0.100956455,0.2688831,9.927892
128779448051208,-0.06124409,0.3059767,9.959771
128779467906057,-0.12361572,0.32160664,9.885056
128779487762514,-0.1607757,0.27382767,9.803053
128779507617360,-0.13414773,0.21148139,9.829796
128779527472209,-0.1244219,0.1280018,9.863294
128779547326928,-0.050590653,0.09673029,9.92318
128779567182203,0.021976337,0.0985189,9.953058
128779587037052,0.021874618,0.05459095,9.931961
128779606891899,-0.0026738418,0.04077542,9.870239
128779626746747,0.038166862,0.059927806,9.832254
128779646601468,0.072289184,0.11242097,9.917358
128779666456315,-0.037146136,0.17312619,9.9028845
128779686318418,-0.088586554,0.21454357,9.894366
128779706173523,-0.105491556,0.25755557,9.905252
128779726028500,-0.027561951,0.24901341,9.78232
128779745883477,0.012785849,0.19196346,9.761609
128779765738454,0.055225413,0.16108824,9.851503
128779785587353,0.014966481,0.16491048,9.849234
128779805442202,0.040517535,0.25306785,9.933684
128779825297179,-0.0068636006,0.27722,10.06925
128779845152028,5.7752506E-4,0.27558005,9.959762
128779865007005,-0.005430904,0.26786104,9.785429
128779884861854,-0.10095632,0.23837185,9.78996
128779904710811,-0.07067375,0.27895463,9.84684
128779924565532,0.009328878,0.3337659,9.814049
128779944420253,-0.02074026,0.34183508,9.903568
128779964274974,-0.0861433,0.34793964,9.891172
128779984132511,-0.054409135,0.41625035,9.824933
128780003987232,-0.03878002,0.4039875,9.858137
128780023842081,-0.0010541712,0.3404861,9.873073
128780043696802,0.020671055,0.2699157,9.876864
128780063551651,-0.011135427,0.18334374,9.744289
128780083409964,0.03266719,0.18169071,9.730318
128780103264813,0.08841342,0.20845972,9.883435
128780123119790,0.062914945,0.21569839,9.875308
128780142974615,-0.06276338,0.15058324,9.892065
128780162829592,-0.011082886,0.10607572,9.86234
128780182684441,0.038783524,0.07163014,9.813045
128780202548336,0.086791575,0.07455924,9.834427
128780222403569,0.052026555,0.09074565,9.882901
128780242258674,0.04655434,0.19421309,9.961223
128780262113773,0.11940142,0.33001933,9.851505
128780281966244,0.07774224,0.4042414,9.856674
128780301821349,-0.02219372,0.4063345,9.989681
128780321676580,0.013446931,0.40411058,9.88377
128780341531684,-4.4056218E-5,0.34467053,9.773234
128780361386789,0.0034716371,0.29240537,9.826284
128780381241205,0.009656561,0.2908177,9.9009075
128780401096309,0.072322845,0.3776507,9.825029
128780420951286,0.105614,0.4217283,9.708308
128780440806389,0.057717,0.3710391,9.878374
128780460661494,0.05471714,0.376855,9.947935
128780480516471,0.10662002,0.401531,9.79712
128780500370198,0.07714113,0.38787454,9.830305
128780520225175,0.058596414,0.36162975,9.924718
128780540080280,0.15650257,0.41404518,9.872854
128780559935252,0.09772873,0.3940851,9.820036
128780579786998,0.06774848,0.3514743,9.82303
128780599641975,0.020068774,0.30621836,9.817882
128780619496950,0.07042415,0.30339625,9.776189
128780639345079,0.116699524,0.2860517,9.902111
128780659200056,0.0834855,0.26858753,9.929048
128780679055031,0.027436307,0.2917366,9.767519
128780698913806,-0.01980512,0.29720303,9.75218
128780718768783,-0.0064613563,0.31017128,9.860873
128780738623758,0.040037505,0.26800022,9.892235
128780758478734,0.08287241,0.27112466,9.871967
128780778333711,0.09960773,0.273293,9.853361
128780798189062,0.11125998,0.34601054,9.843709
128780818044038,0.07307168,0.37012726,9.863307
128780837899015,0.05328521,0.37361768,9.935461
128780857753990,0.11883948,0.38139337,9.909293
128780877602304,0.14261119,0.27384755,9.748256
128780897457153,0.024531739,0.21224798,9.894525
128780917312130,0.055913877,0.20942163,9.826197
128780937166979,0.11599941,0.3037954,9.782562
128780957021828,0.060873296,0.29255402,9.902269
128780976876677,0.079203315,0.26154402,9.908949
128780996729504,0.10994793,0.21820414,9.793397
128781016584353,0.09853617,0.15968142,9.769421
128781036439202,0.063189454,0.14934911,9.955009
128781056294051,0.094524585,0.21558201,10.042552
128781076148900,0.15577611,0.28060883,9.825968
128781095997733,0.12472593,0.32113856,9.836558
128781115852454,-0.013943483,0.289971,9.837961
128781135707175,-0.036611002,0.27562547,9.846444
128781155561896,0.059140112,0.27899885,9.867279
128781175416617,0.12994637,0.31923532,9.893266
128781195271466,-0.003641366,0.29544207,9.894347
128781215130971,-0.043333493,0.2962303,9.7132225
128781234985803,-0.07485036,0.21753138,9.854286
128781254840652,0.018415129,0.18375888,10.01865
128781274695499,0.13162366,0.15477228,9.958438
128781294549409,0.07304617,0.15176472,9.809082
128781314404258,-0.04337158,0.17550774,9.892219
128781334259105,0.05540048,0.26725808,9.946429
128781354113953,0.1708935,0.30055413,9.84037
128781373968802,0.054236878,0.25561452,9.832265
128781393817837,-0.030151809,0.2340807,9.955385
128781413672557,-0.014912027,0.20834126,9.816201
128781433527278,0.08718222,0.20087561,9.7693205
128781453381869,0.030140966,0.15790759,9.944531
128781473236589,-0.023278007,0.19772601,9.904353
128781493091182,0.05022572,0.24957322,9.757289
128781512935101,0.016097724,0.23384105,9.708428
128781532789565,-0.0043834494,0.18762098,9.801366
128781552644030,-0.027531331,0.16980937,9.9654255
128781572498365,0.05532571,0.19384414,9.962322
128781592354836,0.14066753,0.26496616,9.906386
128781612209173,0.09741173,0.27125302,9.921707
128781632063638,0.04999512,0.25452664,9.865832
128781651918103,0.017681316,0.21933147,9.876278
128781671772568,0.051033817,0.19248092,9.8478
128781691631037,0.08093244,0.1964199,9.876684
128781711485496,-0.007750945,0.19923255,9.850561
128781731339961,0.02870629,0.20707655,9.821271
128781751194552,0.0072450438,0.19231127,9.8745775
128781771049016,0.015322162,0.18751357,9.849755
128781790903481,0.039334625,0.2104607,9.925669
128781810761076,0.0044639925,0.18979695,9.825403
128781830615668,0.024000576,0.20615222,9.913437
128781850470261,0.070100725,0.23906524,9.926256
128781870324724,0.07959671,0.24856696,9.876392
128781890182260,0.03515901,0.24514277,9.827502
128781910036853,0.067818485,0.2442069,9.759978
128781929891444,0.031388916,0.17334057,9.842888
128781949746036,0.09165981,0.21106467,9.8722725
128781969600629,0.03853198,0.17784964,9.924995
128781989453337,0.0968013,0.21801035,9.910517
128782009307930,0.10580501,0.2823137,9.83732
128782029162395,0.08945745,0.31508866,9.780484
128782049016988,0.0320547,0.28639606,9.894293
128782068871581,0.081737526,0.27108824,9.841504
128782088726174,0.16600075,0.2631881,9.770322
128782108587087,-0.004385188,0.2589458,9.978465
128782128441808,0.084072165,0.31630912,9.846017
128782148296529,0.10879698,0.35997143,9.838045
128782168151250,0.11459615,0.3417111,9.855318
128782188012995,0.07661448,0.29088908,9.854194
128782207867844,0.06352793,0.28799206,9.815009
128782227722682,0.12964372,0.30551317,9.830478
128782247577530,0.15358867,0.38213912,9.9167385
128782267432251,0.09480037,0.39330944,9.858428
128782287287098,0.1499947,0.38386565,9.746763
128782307129143,0.15539245,0.33993185,9.852131
128782326983864,0.12453424,0.2960006,9.888887
128782346838455,0.0771189,0.31834173,9.87737
128782366693175,0.06760136,0.3431149,9.924737
128782386547768,0.1754587,0.42601526,9.879942
128782406409175,0.19745211,0.43751064,9.802227
128782426264023,0.07732296,0.35746053,9.727572
128782446118744,0.02278121,0.27362975,9.759094
128782465973593,0.10038537,0.2638051,9.813196
128782485827116,0.04120802,0.3147598,9.829935
128782505681965,0.09719476,0.34524727,9.796619
128782525536686,0.13259126,0.29691237,9.813937
128782545391530,0.097868666,0.27202052,9.988999
128782565246251,0.10734275,0.29812437,9.866279
128782585101098,0.100765824,0.31429297,9.770258
128782604955966,0.059666857,0.272219,9.862273
128782624810815,0.13291939,0.23579666,9.878027
128782644665534,0.21825747,0.18880506,9.988056
128782664520382,0.22419113,0.15405153,9.976261
128782684375103,0.21866423,0.18461986,9.994466
128782704230893,0.14430909,0.26177886,9.835721
128782724085741,0.08577238,0.30809966,9.697777
128782743940590,0.07025911,0.2852779,10.021311
128782763795437,0.1366551,0.24083748,9.870757
128782783658780,0.11352427,0.23471491,9.819961
128782803514013,0.020699589,0.2227046,9.877526
128782823369116,0.028349185,0.24363907,9.803206
128782843224221,0.07910887,0.18136889,9.837148
128782863079326,0.10649558,0.12345305,9.846261
128782882934431,0.11703586,0.16937707,9.896838
128782902787414,0.08700339,0.27487794,9.975267
128782922642519,0.04807616,0.32007575,9.880983
128782942497624,0.1332517,0.27099785,9.912333
128782962352601,0.09221641,0.22821862,9.778267
128782982207706,-0.027385255,0.20215167,9.66865
128783002057185,-0.036419217,0.22100496,9.801759
128783021912162,0.031057928,0.23360512,9.894318
128783041767139,0.19165212,0.24215111,9.945635
128783061622244,0.13752326,0.25559902,9.965912
128783081477221,0.057988252,0.28167346,9.938852
128783101332198,0.07865861,0.34741125,9.773351
128783121186049,0.026356842,0.32925087,9.67916
128783141041026,0.06499047,0.23023658,9.827587
128783160895875,0.10126724,0.1693107,9.866387
128783180750724,0.07845638,0.203133,9.89056
128783200600355,0.0351374,0.2979476,9.906381
128783220455204,0.096263856,0.31803092,9.92837
128783240309906,0.16120996,0.2823132,9.922883
128783260164754,0.09194861,0.22562079,9.807269
128783280019475,0.06356469,0.21557184,9.84819
128783299868793,0.08564405,0.273198,9.836248
128783319723513,0.116150394,0.3143656,9.814096
128783339578234,0.16236661,0.3069326,9.968775
128783359432953,0.12977935,0.26778755,10.004489
128783379287673,0.08920661,0.19520094,9.785909
128783399142394,0.007998665,0.15302967,9.800332
128783418998284,-0.05186192,0.10792093,9.7985935
128783438853004,0.050007537,0.16016547,9.745263
128783458707725,0.11583989,0.17781167,9.814394
128783478562446,0.05188415,0.20213091,9.97621
128783498416965,0.09149705,0.22021548,9.930553
128783518271814,0.07143002,0.24320127,9.852772
128783538126531,0.10401064,0.1824046,9.84726
128783557981251,0.12032233,0.15961029,9.916692
128783577835972,0.08643788,0.12185278,9.867068
128783597685341,0.077793844,0.15658553,9.910913
128783617539933,0.1363995,0.16932459,9.87838
128783637394526,0.1620785,0.23643078,9.812139
128783657249117,0.014515574,0.23015107,9.817702
128783677103709,0.059986163,0.1892092,9.8829565
128783696958302,0.18412074,0.18589821,9.898607
128783716819580,0.1295904,0.1891144,9.815984
128783736674300,0.053037003,0.22504814,9.962226
128783756529021,0.1072862,0.22040617,9.984844
128783776383740,0.22272426,0.18467008,9.765541
128783796240972,0.137606,0.17974895,9.804352
128783816095821,0.053798307,0.18093203,9.817312
128783835950796,0.063535415,0.19022213,9.882647
128783855805645,0.094821624,0.238246,9.991199
128783875660494,0.1388495,0.23956147,9.950926
128783895515340,0.0966739,0.22698395,9.82835
128783915368063,-0.044606056,0.17120272,9.7805805
128783935222784,0.033106852,0.14603187,9.804851
128783955077375,0.1833589,0.16441229,9.806527
128783974932095,0.10077675,0.24075072,9.928389
128783994786816,0.048849333,0.29205635,9.957429
128784014636002,0.08373794,0.2361392,9.810188
128784034490594,0.17398083,0.15799563,9.795124
128784054345187,0.12324322,0.1385358,9.923771
128784074199778,0.069892585,0.19554842,9.871127
128784094056691,0.10827722,0.26117456,9.91057
128784113911284,0.11380023,0.24601454,9.948105
128784133765875,0.1767195,0.19329576,9.801834
128784153620467,0.010629806,0.15651277,9.815082
128784173475060,0.008254378,0.16292332,9.834369
128784193329653,0.13137485,0.24003296,9.856024
128784213191518,0.10609768,0.29217672,9.832605
128784233046239,0.078327686,0.25379622,9.824394
128784252900956,0.10308047,0.21584484,9.873367
128784272755676,0.08680082,0.20416094,9.848305
128784292610397,0.13189384,0.2373867,9.924609
128784312473180,0.13550659,0.2895494,9.826406
128784332328156,0.12429658,0.31281215,9.82095
128784352183005,0.10223729,0.29991204,9.9022455
128784372037980,0.07448473,0.1934722,9.832794
128784391899515,0.093195565,0.17813875,9.8719425
128784411754620,0.10954588,0.22092226,9.94693
128784431609723,0.10362587,0.25330332,9.882224
128784451464827,0.13681714,0.26069242,9.730285
128784471319932,0.030602828,0.2141457,9.724644
128784491175165,-0.015859818,0.17334053,9.935616
128784511031261,0.11992439,0.17299376,9.889377
128784530886494,0.12947498,0.21365331,9.868239
128784550741725,0.13198958,0.210274,9.984178
128784570596829,0.15440746,0.19957475,9.867776
128784590452062,0.15160216,0.21076614,9.812029
128784610312232,0.10200174,0.20917259,9.901707
128784630167592,0.10339313,0.22137485,9.822243
128784650022825,0.21067166,0.243982,9.779833
128784669878056,0.12898758,0.24597822,9.905692
128784689733416,0.14636193,0.2572011,10.020695
128784709588649,0.1999965,0.27242145,9.861302
128784729427210,0.12574174,0.22946212,9.715013
128784749282315,0.07448714,0.21668614,9.799199
128784769137292,0.0994707,0.228549,9.797269
128784788992397,0.13643569,0.25734106,9.861277
128784808846264,0.11658599,0.27881467,9.932443
128784828701241,0.12576868,0.26380104,9.93228
128784848556218,0.116973214,0.24299762,9.8748455
128784868411323,0.10321622,0.1932923,9.771713
128784888266300,0.10155141,0.17591126,9.800835
128784908121277,0.024425702,0.18256953,9.910307
128784927966514,0.10950423,0.20637664,9.871078
128784947821235,0.16777863,0.20529014,9.8757305
128784967676084,0.123375885,0.22787838,9.939066
128784987530805,0.1127089,0.23622854,9.94147
128785007385654,0.084041215,0.2505513,9.857577
128785027234329,0.014950049,0.24757004,9.723623
128785047089050,0.04576797,0.17404167,9.786485
128785066943643,0.08062494,0.11631123,9.888748
128785086798364,0.14233373,0.18593015,9.908812
128785106647569,0.11344712,0.2859945,9.938911
128785126502162,0.14186084,0.31679082,9.969946
128785146356627,0.14230949,0.27001333,9.869569
128785166211220,0.045288503,0.23007946,9.771054
128785186065685,-0.0086127715,0.22649968,9.80917
128785205920254,0.046840016,0.25300992,9.901374
128785225771135,0.07404808,0.26919916,9.756853
128785245625472,0.081365116,0.25980234,9.874581
128785265479934,0.035645287,0.18977211,9.9186945
128785285334270,0.06414079,0.17568949,9.865484
128785305188735,0.050794248,0.17031309,9.877675
128785325046125,0.054822244,0.24998425,9.844968
128785344900589,0.11460888,0.3349137,9.902646
128785364754926,0.1341475,0.28931588,9.886407
128785384609389,0.15007901,0.19054222,9.793734
128785404465294,0.07428791,0.117314465,9.847195
128785424319631,0.040839687,0.15274295,9.899402
128785444174094,0.13111535,0.25053954,9.889139
128785464028558,0.07391171,0.27970666,9.85196
128785483882895,0.020383433,0.20930819,9.827244
128785503737358,-0.039974865,0.1192426,9.945385
128785523591340,0.076486476,0.09724875,9.808371
128785543445805,0.17090146,0.14405598,9.815945
128785563300140,0.09112817,0.23468468,9.927024
128785583154604,0.17238536,0.29433703,9.901691
128785603009069,0.11123708,0.3248924,9.889388
128785622863301,0.028259547,0.3274021,9.846722
128785642717637,0.032998893,0.24369515,9.850371
128785662571974,0.09505893,0.11103854,9.775638
128785682426309,0.03372773,0.051450394,9.793469
128785702285480,0.05149894,0.080275215,9.935156
128785722139945,0.06503619,0.18690157,9.965073
128785741994280,0.17031127,0.28979242,9.8459425
128785761848745,0.039771758,0.24684706,9.893705
128785781703082,0.09478627,0.1653145,9.885248
128785801557547,0.008662712,0.14282706,9.84702
128785821414108,0.028176555,0.1991469,9.71861
128785841268573,0.09449395,0.21209161,9.801371
128785861123166,0.074850805,0.16984123,9.955407
128785880977631,0.15161325,0.14083162,9.891364
128785900832096,0.056791693,0.16093217,9.890596
128785920696045,0.070855685,0.19924176,9.873888
128785940550638,0.19940792,0.26079172,9.707118
128785960405359,0.1695126,0.28634542,9.809556
128785980260080,0.15648742,0.25587982,9.880831
128786000114801,0.08706818,0.25651065,9.975934
128786019969394,0.13472356,0.27623275,9.91879
128786039824665,0.20906086,0.2889348,9.856682
128786059679386,0.03298898,0.22763905,9.780437
128786079534235,0.06797583,0.18661271,9.742254
128786099388956,0.08155229,0.20550863,9.927131
128786119249821,0.18570106,0.2555447,9.895039
128786139104670,0.14987557,0.27792877,9.862649
128786158959647,0.08385537,0.2752545,9.899821
128786178814624,0.1097738,0.22293381,9.856601
128786198669473,0.11481498,0.21199737,9.754744
128786218532956,0.0022777144,0.1739973,9.815429
128786238388188,0.12524982,0.22167027,9.726571
128786258243421,0.051148232,0.23186922,9.852591
128786278098652,0.087931834,0.18662931,9.958947
128786297953884,0.18332657,0.186943,10.033929
128786317809117,0.04659051,0.21773711,9.980149
128786337658552,0.17654134,0.20165113,9.830881
128786357513656,-0.010672831,0.2143555,9.879151
128786377368633,0.17265053,0.12856808,9.598555
128786397223736,0.074513145,0.1219915,9.788187
128786417079011,0.012776233,0.15252417,10.040134
128786436934116,0.25625393,0.18028653,9.79056
128786456789093,0.15539828,0.25541314,9.811949
128786476644198,0.009517767,0.22522537,9.921207
128786496499303,0.19803235,0.14873561,9.853994
128786516351112,0.14645246,0.1728468,9.805805
128786536206088,0.09007825,0.21459681,9.878781
128786556061065,0.15422963,0.2780952,9.913705
128786575916168,0.21607415,0.30810848,9.853471
128786595771144,0.09533901,0.26723254,9.904432
128786615626249,0.09709176,0.21580894,9.851935
128786635479781,0.116732106,0.20621243,9.833284
128786655334757,0.012004165,0.20807642,9.762601
128786675189734,0.06467702,0.22525303,9.777535
128786695042583,0.18301046,0.24806395,9.931132
128786714899828,0.16376443,0.28163952,9.973294
128786734754805,0.1945551,0.33859167,9.892065
128786754609782,0.1251474,0.34554353,9.839064
128786774464887,0.11734157,0.30922505,9.861838
128786794319864,0.15982196,0.26186025,9.926295
128786814174841,0.1258842,0.2594909,9.807116
128786834030534,0.074653044,0.26936555,9.82117
128786853885511,0.054090004,0.23605995,9.926739
128786873740616,0.21148807,0.19496888,9.790229
128786893595593,0.18253182,0.1888023,9.861649
128786913450570,0.044467237,0.23831336,9.936606
128786933303761,0.11858604,0.30612186,9.900387
128786953158738,0.14071389,0.33851054,9.855852
128786973013715,0.11542545,0.2799604,9.759102
128786992868692,0.11385147,0.17967875,9.771169
128787012719097,0.10223683,0.13651468,9.806908
128787032573946,0.06457633,0.20590283,9.935133
128787052428795,0.09933905,0.27725405,9.879489
128787072283772,0.16371916,0.25256497,9.849085
128787092138621,0.17148973,0.23074739,9.979661
128787111993598,0.023821112,0.19315447,9.888996
128787131838847,0.046829697,0.19548666,9.754517
128787151693440,0.022658821,0.19626345,9.754021
128787171548138,0.07851123,0.20831017,9.7506695
128787191402859,0.1550096,0.18099825,9.8891
128787211257452,0.13244897,0.17438163,9.919736
128787231110947,0.09295625,0.26509917,9.967539
128787250965540,0.103490524,0.33193263,9.991603
128787270820133,0.1543416,0.30695614,9.905702
128787290674849,0.11324627,0.26132858,9.861973
128787310522816,0.0924365,0.17280243,9.686306
128787330377281,0.0028187258,0.10687848,9.752341
128787350231872,0.062218305,0.112888604,9.968361
128787370086336,0.17237085,0.14719374,9.875996
128787389940929,0.10476773,0.22467646,9.990021
128787409795392,0.08331483,0.24045391,9.878805
128787429648218,0.07265611,0.28558433,9.825234
128787449502683,-0.046023782,0.29704252,9.871156
128787469357146,0.015218488,0.23475163,9.755515
128787489211610,0.12430919,0.20521586,9.784892
128787509065947,0.07948338,0.19510622,9.939475
128787528917069,-0.044765215,0.17464152,9.91724
128787548771533,-0.02226308,0.16893642,9.888687
128787568625870,0.07272375,0.11566333,9.743827
128787588480205,0.056903895,0.102808595,9.86742
128787608333524,-0.03402009,0.16783808,9.924208
128787628187733,0.035480883,0.27265546,9.863831
128787648042068,-0.005039429,0.27989614,9.968394
128787667896405,0.03330163,0.20866008,9.936797
128787687750614,0.029182378,0.14147978,9.744505
128787707604951,-0.094336875,0.11079035,9.734068
128787727462514,-0.13772668,0.078433454,9.842593
128787747316851,-0.012361722,0.119516,9.919341
128787767171316,0.06273157,0.14183825,9.801472
128787787025653,-0.02271593,0.13361552,10.02131
128787806879990,0.038643815,0.17916627,10.050438
128787826737841,0.11984596,0.25575456,9.823809
128787846592306,-0.035199482,0.27257434,9.797807
128787866446771,-0.15081389,0.1842839,9.753273
128787886301108,-0.030637814,0.10734837,9.779547
128787906155573,0.08418988,0.09859284,9.932995
128787926010038,0.048159488,0.15166743,9.979657
128787945866087,-0.06406652,0.21508333,9.945766
128787965720552,-0.034634188,0.23634961,9.772327
128787985575017,6.8314397E-4,0.1929995,9.695615
128788005429482,-0.019172672,0.118945174,9.847736
128788025289427,-0.05599091,0.12668842,9.918307
128788045143892,0.02837839,0.22618954,9.911091
128788064998485,-0.016049864,0.23310257,9.792215
128788084852950,0.045695487,0.2148636,9.817489
128788104707543,0.02364454,0.17545079,9.836564
128788124561986,0.0051216357,0.16502124,9.812291
128788144420157,-0.018485146,0.20003845,9.958487
128788164274750,0.113396704,0.28492007,9.867168
128788184129343,0.10399186,0.25620428,9.817284
128788203983936,0.023410758,0.21678953,10.008558
128788223838529,0.12352658,0.19479407,9.886782
128788243706338,0.114373125,0.22895227,9.858955
128788263561187,-0.032811675,0.21755008,9.794839
128788283416036,-0.035228197,0.19382769,9.770431
128788303270876,0.04974402,0.19378495,9.857716
128788323131991,0.019258162,0.18598126,9.896718
128788342987096,-0.016616851,0.22506957,9.87594
128788362842199,0.0349852,0.2584221,9.915371
128788382697175,0.11740186,0.24300423,9.95432
128788402552280,0.1270084,0.2427003,9.867243
128788422407255,0.056346763,0.22215676,9.743619
128788442264765,0.075063944,0.24099556,9.907074
128788462119870,0.12665017,0.25920618,9.947098
128788481975101,0.19383965,0.28909615,9.684337
128788501830333,0.04030723,0.2758019,9.808973
128788521685438,-0.11401367,0.2104383,9.893087
128788541541919,0.033672,0.1952702,9.975301
128788561397151,0.23061225,0.21652436,9.946037
128788581252512,0.23505935,0.24453034,9.8440075
128788601107743,-0.010586302,0.25435698,9.875174
128788620964854,-0.06508835,0.2881584,9.791916
128788640820087,0.13391587,0.3031314,9.783338
128788660675446,0.008050475,0.25529227,9.77877
128788680530806,-0.1105824,0.15270576,9.777342
128788700386039,-0.04121718,0.14992772,9.981185
128788720241398,0.12139873,0.18117015,9.905818
128788740099861,-0.010525404,0.2113165,9.827572
128788759955350,-0.09144232,0.24543947,9.798381
128788779810709,0.07925487,0.25747493,9.830189
128788799666069,0.1575797,0.24116975,9.959722
128788819521430,0.10381272,0.22403444,9.917497
128788839374129,-0.049395535,0.26939553,9.896093
128788859229489,-0.07289407,0.28148094,9.906689
128788879084850,0.06460029,0.20720209,9.810696
128788898940209,0.06471122,0.12234438,9.799844
128788918787761,-0.054917634,0.09818175,9.678511
128788938642994,-0.1353497,0.17702226,9.91712
128788958498225,-0.028469926,0.28991008,10.024646
128788978353457,0.10719738,0.38402873,9.840622
128788998208562,0.020610174,0.2840025,9.892141
128789018063793,-0.08435552,0.20247833,10.057012
128789037903283,0.023764227,0.20923604,9.793225
128789057758132,0.036355358,0.22970566,9.721964
128789077613107,-0.004775189,0.17131366,9.665274
128789097468083,-0.064934395,0.18235646,9.910831
128789117322932,0.028051384,0.2798573,9.930195
128789137163797,0.028628191,0.32498422,9.975332
128789157018389,0.014937924,0.31724507,10.000615
128789176872982,0.024826026,0.21544895,9.79361
128789196727445,-0.023498459,0.15049648,9.830086
128789216582037,-0.0130245825,0.12023044,9.801059
128789236436630,-0.009730407,0.13483082,9.823392
128789256291491,-0.027357128,0.19466566,9.953177
128789276144486,0.034239646,0.225578,9.927706
128789295999079,-0.011501421,0.21894799,9.924688
128789315853542,-0.08340592,0.19144377,9.754374
128789335701028,-0.080961406,0.17753866,9.818743
128789355555365,-0.06529363,0.21639688,9.990534
128789375409828,0.016395548,0.23305868,9.824315
128789395264164,-0.0448398,0.21882215,9.84748
128789415118501,-0.03893146,0.13636644,9.782609
128789434971345,-0.011120827,0.1454549,9.957163
128789454825681,-0.056004316,0.17815433,9.901142
128789474679890,-0.11210032,0.20991664,9.72651
128789494534225,-0.0802023,0.23053995,9.890158
128789514388433,0.036658164,0.2700024,9.9511595
128789534242770,-0.022167748,0.24794938,9.98925
128789554095114,-0.12212812,0.20531224,9.892376
128789573949194,-0.049176548,0.1888106,9.738867
128789593803403,0.05560996,0.19376314,9.858414
128789613657610,0.009059632,0.104938604,9.826242
128789633510179,-0.0022119458,0.1938746,9.909374
128789653364260,-0.069179185,0.24437511,9.994205
128789673218467,-0.036016207,0.22318941,9.832951
128789693072547,0.04719075,0.18681791,9.83321
128789712926628,-0.07056109,0.12353692,9.85783
128789732785521,-0.030704208,0.18450779,9.75875
128789752639601,-0.07649579,0.20072502,9.921343
128789772493810,0.037391163,0.25868174,9.849922
128789792347889,0.0035424775,0.25002956,9.845288
128789812202097,-0.06235739,0.20670176,9.868348
128789832056178,-0.037231825,0.21099713,10.003846
128789851917076,0.066983566,0.2801713,9.9218235
128789871771412,-0.066168524,0.24802521,9.779124
128789891625749,-0.06176275,0.19851157,9.817907
128789911480084,0.013085832,0.1456371,9.860383
128789931335700,0.11041659,0.20666483,9.766992
128789951190037,-0.056366127,0.18648915,9.914993
128789971044372,-0.030219056,0.23170818,9.8434105
128789990898708,0.062636904,0.2872911,9.749363
128790010753173,-0.023277028,0.23426585,9.888295
128790030603467,-0.03873901,0.1910494,10.003134
128790050457803,0.012475359,0.23799767,9.922559
128790070312012,-0.008981145,0.22315766,9.811601
128790090166347,-0.015587545,0.20251392,9.894267
128790110020555,0.0682628,0.17281184,9.795534
128790129874764,0.052502524,0.12750217,9.723214
128790149735316,0.023145223,0.10890854,9.839411
128790169589780,0.06587558,0.1855537,9.951792
128790189444117,0.031392615,0.33313662,9.904337
128790209298452,-0.106158435,0.3886629,9.919672
128790229161181,-0.13200894,0.3079614,9.814344
128790249015774,0.00913716,0.22165883,9.795729
128790268870365,0.030411007,0.050368983,9.759189
128790288724957,0.043997876,-0.037773713,9.83778
128790308579550,0.032486107,-0.031276308,9.961084
128790328434141,0.12864956,0.16750374,9.966018
128790348301358,0.09129713,0.38473162,9.949484
128790368156207,-0.07615706,0.45834622,9.850974
128790388011182,-0.1775544,0.35973248,9.737376
128790407866030,-0.1589338,0.14490011,9.7804575
128790427721007,0.0058266586,0.0145112965,9.815626
128790447578621,0.03967593,0.041009687,10.053529
128790467433597,0.058915846,0.17520654,10.025466
128790487288702,0.10472555,0.35911465,9.844729
128790507143677,-0.0032023583,0.33509666,9.830503
128790526999462,-0.021483285,0.2064,9.811303
128790546854567,-0.087305866,0.13401143,9.850302
128790566709670,-0.08377813,0.1970629,9.789517
128790586564774,-0.026907813,0.3433731,9.835594
128790606419879,0.00761503,0.34418693,9.933705
128790626274982,0.006817933,0.25697377,9.908533
128790646129184,-0.057932746,0.16122939,9.939756
128790665984161,-0.017531564,0.120402254,9.768285
128790685839264,-0.027624557,0.1655978,9.72639
128790705694240,-0.024699874,0.16645241,9.84411
128790725549345,0.058394987,0.22153506,9.921951
128790745394350,0.058048815,0.28813902,9.968481
128790765249198,-0.06574189,0.25320712,9.922671
128790785104047,-0.047705553,0.26346427,9.854931
128790804958766,-0.04448101,0.2153131,9.801637
128790824813510,0.026552293,0.1980068,9.698394
128790844668359,-0.08523632,0.118726276,9.871344
128790864523206,0.010745004,0.14978981,9.8317585
128790884378054,0.08956321,0.2664114,9.932955
128790904232903,0.101111874,0.27907526,9.918829
128790924087750,0.022594782,0.18011373,9.905364
128790943941556,-0.029605076,0.15719442,9.895323
128790963796405,-0.019375045,0.1631553,9.668104
128790983651252,-0.09415831,0.18639626,9.806432
128791003505972,-0.0072027426,0.23686546,9.933898
128791023360821,0.030061468,0.17158796,9.691101
128791043211206,0.0015952582,0.14868367,9.897094
128791063065926,0.04643492,0.15733165,9.956777
128791082920647,0.07031197,0.24193087,9.805892
128791102775366,-0.11936774,0.21139736,9.837631
128791122628983,-0.082152635,0.21140297,9.778376
128791142483576,0.02188502,0.25425902,9.940934
128791162338295,0.025007514,0.26336426,9.990045
128791182193015,-0.04288873,0.22673158,9.826994
128791202047736,-0.1145879,0.22139943,9.870358
128791221902455,0.009310657,0.21555275,9.774246
128791241747240,-0.047792055,0.14778501,9.838604
128791261601705,-0.055981357,0.16443004,9.893113
128791281456168,-0.046074096,0.23770127,9.881389
128791301307568,-0.13180313,0.25407642,9.947128
128791321162033,-0.011016638,0.21605079,9.849239
128791341012272,0.0564589,0.17470224,9.831041
128791360866736,-0.016192015,0.10215954,9.862349
128791380721073,-0.020036535,0.11921833,9.851456
128791400575408,-0.026408698,0.19394435,9.995399
128791420429872,0.044565674,0.2559217,9.822889
128791440284209,-0.07773721,0.20671496,9.899386
128791460145456,-0.20680633,0.069120176,10.050568
128791480000048,0.061936636,0.13049054,9.69554
128791499854513,-0.021325724,0.065330684,9.7846155
128791519709104,-0.106672294,-0.044059094,9.797664
128791539563118,-0.043982785,0.037265424,9.775191
128791559417583,-0.03847034,0.041371617,9.99471
128791579272174,0.0886711,0.20754252,9.884486
128791599126638,-0.10390884,0.15797825,9.950391
128791618981103,-0.05346669,0.21928495,9.767518
128791638832688,-0.106995046,0.13891684,9.85195
128791658687024,-0.090243176,0.08202429,9.919653
128791678541361,0.039163966,0.17093562,9.774771
128791698395568,-0.10852736,0.114133835,9.9226
128791718249904,-0.022827456,0.16540818,9.827666
128791738104241,-0.06854005,0.091001876,9.804751
128791757957992,-0.034277983,0.11037587,9.830249
128791777812328,-0.04263182,0.1309865,9.8858
128791797666665,-0.13253228,0.15994725,10.0851755
128791817520874,-0.03915136,0.23320387,9.882103
128791837379217,-0.06517419,0.2572415,9.623937
128791857233554,-0.21728869,0.111123875,9.856452
128791877088014,-0.018468985,0.21621351,9.692531
128791896942350,-0.11349212,0.23418969,9.812768
128791916796815,-0.045542154,0.29622114,9.887294
128791936663214,-0.027128356,0.34284458,9.979206
128791956517934,-0.017420907,0.34645352,10.110857
128791976372527,0.056232426,0.4197913,9.998862
128791996227246,-0.15701376,0.29270735,9.78594
128792016081838,-0.081629515,0.21718465,9.631763
128792035936559,0.031253535,0.20589139,9.755504
128792055792881,0.04336112,0.24227715,9.852804
128792075647601,-0.0027627032,0.32271633,9.807019
128792095502322,-0.12923624,0.34833902,9.931606
128792115357041,-0.10727871,0.38004285,9.978703
128792135218222,-0.06721855,0.38841912,10.011714
128792155073071,-0.055627078,0.3059994,9.837333
128792174927920,-0.074650854,0.15186752,9.653659
128792194782769,-0.15934475,-0.009897841,9.900864
128792214637618,0.08504415,0.21982297,9.812382
128792234492462,0.043591432,0.29964107,9.866932
128792254350193,-0.12575209,0.23888125,10.060824
128792274205170,0.009041646,0.31009483,9.780624
128792294060145,-0.07757675,0.24234,9.937456
128792313915121,-0.03542061,0.28079087,9.811685
128792333770098,-0.17647454,0.16613568,9.8715925
128792353619642,-0.07823909,0.25322598,10.014193
128792373474490,0.11140912,0.3782239,9.857582
128792393329339,-0.1464173,0.17611748,10.076949
128792413184314,0.0686492,0.28351957,9.882692
128792433041795,-0.070835054,0.2348595,10.157936
128792452896772,-0.13008,0.20679575,10.384412
128792472751749,0.10412866,0.4714455,9.84424
128792492606598,-0.1399792,0.29533118,10.142048
128792512461575,-0.11446438,0.28488642,10.185851
128792532316552,-0.05118799,0.32226261,9.902545
128792552171724,-0.1671377,0.22294323,10.113592
128792572026701,0.017492883,0.37770075,9.970471
128792591881804,-0.1627267,0.15920278,10.203818
128792611736780,0.007235473,0.22495201,9.961581
128792631591757,0.067359306,0.26437306,9.892545
128792651449798,-0.118324935,0.059849925,10.375241
128792671304902,0.04456884,0.26830757,10.036241
128792691160007,-0.04218982,0.2416851,9.735856
128792711014982,-0.05664299,0.2946532,9.8867655
128792730869324,-0.19210945,0.17309853,10.45139
128792750724429,-0.08711183,0.24471499,10.385109
128792770579532,0.19908269,0.5984093,9.636472
128792790434636,-0.21213293,0.3140209,10.069429
128792810289741,-0.21341199,0.12201441,10.197571
128792830144716,0.027704457,0.34010455,9.827533
128792849994243,-0.11857428,0.27215153,10.218806
128792869849092,0.106416374,0.60076845,9.908138
128792889704069,-0.26996094,0.335975,10.210341
128792909559046,-0.18645512,0.33155915,10.12429
128792929413895,-0.04178742,0.41752017,9.860312
128792949258290,-0.16579576,0.2160752,10.142464
128792969112883,0.10122485,0.4703445,9.881596
128792988967604,-0.2332098,0.22062388,10.233794
128793008822197,-0.065176114,0.41509402,10.113241
128793028674998,-0.08349667,0.4029211,9.858515
128793048529719,-0.18721746,0.22790232,10.300981
128793068384312,0.07326873,0.3923179,9.999254
128793088239033,-0.048890144,0.27069962,9.791096
128793108093626,-0.13439745,0.27506584,10.1985035
128793127948347,-0.010262228,0.4232154,10.180378
128793147795838,-0.13414498,0.3168728,10.146676
128793167650431,0.115988664,0.51833797,9.883195
128793187504896,-0.10579387,0.30835998,10.240883
128793207359361,-0.05636147,0.25329188,10.217621
128793227213954,0.10258498,0.4175487,10.033141
128793247064049,0.038810425,0.43610117,10.27467
128793266918385,0.27085954,0.5782258,10.420072
128793286772850,0.3383052,0.40564546,10.45791
128793306624674,0.46475327,0.24147514,10.35372
128793326479138,0.61503196,0.18931551,10.4854355
128793346333475,0.7215203,0.17378473,10.592279
128793366190274,1.2496988,0.69115734,9.9028015
128793386044738,1.5890776,0.7226207,9.459298
128793405899075,1.1444823,0.16625795,9.639596
128793425753410,0.0534086,-0.56055975,10.265298
128793445608043,-2.0354304,-1.5941143,10.573414
128793465462380,-1.1307386,-1.09557,10.901185
128793485316717,0.47654855,0.4863504,11.251724
128793505171054,0.9124665,1.3541735,11.146414
128793525025391,0.1389078,0.2746032,10.416532
128793544885866,-0.18636568,-0.48317,9.69011
128793564740453,0.2026843,-0.019075735,9.345935
128793584594918,0.6011754,0.6372737,8.936054
128793604449381,0.37919456,1.1866819,9.005141
128793624303845,0.65616643,1.6808388,9.390512
128793644158310,0.7903508,2.0226045,9.35538
128793664011336,0.4888429,1.7333612,9.181708
128793683865800,0.80941033,1.3814417,9.341462
128793703720265,1.5182594,1.461361,9.712207
128793723574728,2.623294,1.6170312,10.105477
128793743424829,1.5504464,5.733099,9.326117
128793763279294,0.548555,5.833008,8.850093
128793783133631,-1.7574508,5.0467906,7.488524
128793802988096,-4.7778773,2.3928716,5.025938
128793822842433,-4.465812,-1.0651873,8.316192
128793842696898,1.5831261,-4.9382887,16.327576
128793862558377,3.7430751,-5.971766,14.948723
128793882412842,4.05609,1.1099204,9.581157
128793902267435,0.9167306,-1.6931795,8.641382
128793922121900,-0.7009074,-5.98212,10.811607
128793941976493,-0.4239902,-6.366377,11.649072
128793961832670,-0.5636961,-3.8757577,10.998006
128793981687135,1.5885168,0.59518564,10.588793
128794001541728,2.1131544,-0.24624418,9.648481
128794021396193,-0.9454057,-3.3973114,8.369938
128794041254724,-1.6510425,-2.2794034,7.2196302
128794061109317,-0.4877928,-0.7049063,6.7945213
128794080963910,0.47504172,-0.97844636,7.034709
128794100818631,0.086429186,-1.7323257,7.948836
128794120673224,-1.0503073,-2.05225,8.686411
128794140527817,-1.9055768,-1.8380995,9.215353
128794160384292,-1.9612358,-1.759235,9.448356
128794180239013,-1.7135793,-1.0808624,9.507546
128794200093606,-1.4244438,-0.3916777,9.367349
128794219948305,-0.010806201,2.6496346,9.003379
128794239802898,0.3338774,2.7649038,9.77257
128794259660494,0.61067164,1.6037674,10.650378
128794279515214,-0.098374665,0.14527349,11.359965
128794299370063,0.4416884,2.2006757,11.870935
128794319224782,-0.4174646,3.46229,12.253103
128794339086481,-1.4384652,1.9489777,13.23494
128794358941458,-0.99627024,0.67378145,14.803698
128794378796305,1.2754877,-0.53838366,16.000685
128794398651281,5.109886,-0.5874496,15.220386
128794418506258,5.2776227,-2.1406603,13.018984
128794438361233,5.01978,-5.7930646,12.398287
128794458218929,-0.48232117,-10.496018,11.73891
128794478073906,3.1924045,-8.617592,12.013554
128794497929011,8.453836,-2.9758654,10.005892
128794517783988,1.0501661,-2.9792206,6.176194
128794537639093,-1.3953658,-4.411626,4.9214616
128794557492749,-0.5587052,-3.274582,4.0601373
128794577347725,-0.23451059,-1.2679626,4.2003016
128794597202830,1.4543238,1.7602069,6.442487
128794617057805,0.38821465,2.253815,6.945162
128794636915183,-4.166553,1.9403849,5.040362
128794656770288,-4.093363,2.1105442,4.9672294
128794676625391,-0.8687575,1.653343,5.9953766
128794696480495,0.8081086,-0.66841817,5.470014
128794716335472,1.329827,-1.5911118,5.2246966
128794736190575,3.243938,-1.1580554,6.1233816
128794756035396,7.4582644,5.526373,7.6618347
128794775890245,5.5341067,2.7392259,14.811262
128794795745094,7.7082615,2.3876956,18.681896
128794815599943,7.615928,3.1236923,14.977922
128794835454792,4.9704566,4.927094,12.0594015
128794855304855,2.4510353,-4.041907,14.517233
128794875159576,0.63808024,-15.196489,16.632006
128794895014297,5.416269,-15.129625,9.250425
128794914869018,2.2286985,-4.0438147,4.1616592
128794934723739,0.73962694,1.0324374,6.1650324
128794954578460,4.2768664,-2.5818505,8.863834
128794974439143,4.88837,-8.157623,10.754984
128794994293992,1.7004619,-7.1277437,11.135604
128795014148841,1.1612754,-2.7909057,10.263503
128795034003690,3.757312,-0.45392635,7.707181
128795053854369,1.0662109,-2.390468,6.083227
128795073709090,-2.7803442,-4.554293,5.983227
128795093563939,-3.7395825,-4.3873954,7.506184
128795113418660,-2.4726074,-4.2487736,8.596398
128795133273509,0.40854183,-1.4716523,9.500614
128795153129058,1.2368331,-0.04878196,10.202808
128795172983907,-1.3582228,-1.718068,10.288909
128795192838756,0.8030984,1.6344323,10.5514555
128795212693605,3.2657824,3.361152,10.089602
128795232548433,1.8676758,4.1206813,8.365854
128795252403282,-0.8772027,3.1717176,10.410262
128795272245579,1.1513515,3.6108522,10.590029
128795292100171,3.9625204,4.686822,9.712179
128795311954764,3.2336512,3.683414,10.453239
128795331811082,2.288471,1.2634809,12.614463
128795351656064,4.2729974,-0.21032801,14.534545
128795371510401,10.093359,-1.0329635,12.778396
128795391364608,5.140223,-5.4385567,12.643286
128795411218944,3.5722346,-6.7172327,13.768425
128795431073281,4.3058133,-3.3227394,15.523307
128795450930278,3.6308365,-9.57776,14.229021
128795470784615,9.510561,-9.947947,11.599812
128795490638952,-0.17104742,-4.71867,7.3610153
128795510493289,-4.2272677,-3.489551,5.7687984
128795530347622,-2.5710933,-2.9096642,4.9179716
128795550201959,-1.5341057,-1.3394086,4.3297825
128795570057215,0.38118958,0.94219446,4.5918403
128795589911551,4.531342,0.6874998,5.993882
128795609765888,1.2942855,1.8025719,7.01322
128795629620223,0.27708948,5.2291484,8.184443
128795649476248,1.785597,2.9666924,6.681405
128795669330585,1.9560966,-0.6541089,5.1835923
128795689184920,3.0406559,-1.5234033,5.144484
128795709039256,8.365011,-2.9447951,6.353252
128795728893593,7.246157,-1.595709,11.142534
128795748747928,6.016186,3.3818188,17.183668
128795768597735,9.362644,1.9843535,18.967033
128795788451944,3.770597,2.9010596,17.890615
128795808306153,-6.121098,-2.064294,15.529965
128795828160362,-2.1422293,-5.9783263,10.092988
128795848014699,6.380403,-6.1448674,4.376914
128795867866774,1.1830306,-3.0995848,6.5708647
128795887720855,-1.7488946,-1.9745641,11.385055
128795907575064,-0.90905863,-4.700354,13.246368
128795927429273,-0.1918034,-3.0604382,11.247076
128795947288906,0.49716952,0.4125248,10.419186
128795967143243,2.2299097,-0.9205738,9.1186075
128795986997580,7.6621423,-2.0424023,6.1343756
128796006851789,-2.58505,-0.63428247,7.4270344
128796026706126,-6.413603,1.2501518,8.834355
128796046560463,-3.581505,1.7706822,8.608599
128796066417170,2.569578,0.88898754,8.14748
128796086271507,3.1048589,-0.09393706,9.141809
128796106125844,1.6289006,0.5651844,9.881095
128796125980181,2.6296127,1.1647851,9.243533
128796145834518,1.208927,1.4318984,9.479367
128796165693023,0.18179645,1.9178895,9.569138
128796185547488,2.4787948,1.1474823,9.151135
128796205401953,1.9748311,0.2187315,9.948739
128796225256270,0.5129895,1.9406415,9.577912
128796245118146,1.9098914,0.09824474,9.33929
128796264972739,4.8076777,-1.3387871,11.725579
128796284827458,2.6841488,-0.7500615,14.533372
128796304682050,-1.3005245,-2.0372849,16.433657
128796324536643,0.9461948,-7.8292713,17.094503
128796344391362,-0.8944965,-12.51196,17.568077
128796364243937,-3.9221668,-7.010054,13.90175
128796384098530,-3.1280813,-2.762809,8.43777
128796403953121,-2.3955395,-1.0980352,7.06858
128796423807713,-1.9040519,-0.48910326,6.6962123
128796443662178,-1.3087068,-0.6636307,5.966263
128796463525663,0.74071497,-1.430002,6.938426
128796483380384,0.34676823,0.1447781,7.0252466
128796503235105,-0.8789004,2.65984,5.953492
128796523089954,0.19701499,1.3632036,5.149134
128796542938320,0.32136983,-1.2741506,5.198312
128796562793041,-0.44709566,-1.200264,6.0842566
128796582647760,-0.042866193,-0.9319873,6.801691
128796602502480,0.76448005,-1.1454442,8.022124
128796622357201,-0.017477239,-1.3567152,11.553139
128796642211792,0.96980745,-1.1372489,13.810894
128796662079471,5.9255505,-0.25856107,12.363201
128796681934448,7.4021053,-2.5295334,9.291804
128796701789423,0.60582584,-0.7301756,8.867574
128796721644399,-3.763386,1.5103546,10.182716
128796741499376,-1.4598368,-1.6325914,13.332094
128796761361647,-1.3087252,-2.0046725,16.378597
128796781216751,-4.437473,-1.5298519,15.051051
128796801071984,-1.8511918,-3.4063113,12.282443
128796820927087,-0.877463,-2.2058887,8.395314
128796840782319,-0.80450296,-1.3675576,6.2562737
128796860637424,-2.1041076,0.16760261,5.907233
128796880490838,-3.1195118,0.23300295,6.546134
128796900345942,-3.6259146,0.6080701,9.289855
128796920201047,-3.6356964,0.6909648,11.610695
128796940056150,-2.6718016,-0.18566848,12.127643
128796959909828,-1.5812465,-0.6621417,10.967865
128796979764805,0.987695,-1.7252176,10.115375
128796999619908,3.5560749,-3.5275438,10.408127
128797019475012,-2.7539918,-0.33230242,9.163475
128797039329989,-5.5980287,0.9334152,8.435095
128797059181831,-1.6081724,0.29240173,9.559958
128797079036935,2.2056859,-0.38932616,10.221043
128797098891912,2.3191798,-0.5411734,10.511133
128797118747015,1.270045,-0.5537503,10.275816
128797138601991,0.44285968,-0.4224517,10.544761
128797158456968,-1.3226495,-0.053255323,11.50799
128797178312510,-1.7450203,-0.2193896,12.019741
128797198167614,-0.35168773,-0.898193,10.570556
128797218022591,1.663762,-1.185281,8.987663
128797237877694,0.41289398,-1.1835637,9.169885
128797257725632,-0.2613013,-1.3451173,9.322607
128797277580609,0.16431992,-1.2889092,9.357232
128797297435584,0.6124233,-0.9536429,9.583177
128797317290560,0.24933973,-0.539165,9.586006
128797337145537,0.39050934,-0.116017014,9.265221
128797357000047,0.766052,-0.009133175,9.091511
128797376854895,0.24805309,0.18159607,9.012082
128797396709744,-0.20605995,0.113438465,9.2237835
128797416564593,0.46083727,-0.28646752,9.546804
128797436419442,0.735305,-0.45400405,9.488744
128797456274291,-0.018876648,-0.35919404,9.176743
128797476129806,-0.9027736,-0.27442774,9.296615
128797495984654,-1.399297,-0.5866511,9.825145
128797515839503,-0.337978,-1.4658252,10.161999
128797535694350,1.1893076,-2.115667,10.133708
128797555539635,1.1247976,-1.716894,9.766839
128797575394228,0.062620394,-0.78709835,9.78116
128797595248819,0.028829047,-0.3199259,10.05786
128797615103539,0.8180222,-0.24859518,9.983154
128797634958132,0.89065033,0.17596275,9.877722
128797654812723,0.86038125,0.37545174,9.948094
128797674664336,0.77838576,0.36165482,9.895952
128797694518929,0.4856692,-0.045104504,9.855062
128797714373392,0.4403023,-0.4790002,9.854431
128797734227984,0.24407524,-0.83859175,9.542761
128797754082449,0.017441532,-0.71063703,9.262221
128797773935888,-0.029499095,-0.7303376,9.239856
128797793790481,-0.0865178,-0.8458087,9.332235
128797813644946,0.076050565,-1.0065641,9.337817
128797833499411,0.08357846,-1.0968051,9.455623
128797853355424,-0.046768624,-0.9967864,9.796002
128797873210017,0.06250147,-0.9427843,10.098724
128797893064482,0.02935488,-0.78887594,10.0676
128797912919075,-0.07788507,-0.5924736,9.9211645
128797932773540,-0.10441476,-0.48490694,9.752062
128797952628005,-0.048902623,-0.5062576,9.688726
128797972485566,0.12329226,-0.72211987,9.740343
128797992340031,0.105135866,-0.99688107,9.865054
128798012194624,0.22952764,-1.1737609,9.789536
128798032049089,0.33305976,-0.9433587,9.656796
128798051903682,0.19701038,-0.33485088,9.834891
128798071756281,0.2688496,0.031128826,9.791328
128798091610746,0.41399768,0.2623128,9.346657
128798111465339,0.351673,0.4503817,9.50595
128798131319804,0.37509522,0.35961983,10.063534
128798151170885,0.42562404,0.31787273,10.056323
128798171025222,0.58913183,0.23858084,9.60398
128798190879559,1.0535297,-0.0691972,9.47337
128798210733875,1.0791774,-0.289658,9.686456
128798230588212,0.19145046,-0.028328026,10.001423
128798250442547,-0.854001,0.36104035,9.922455
128798270299425,0.5882753,0.20141333,9.2949505
128798290153890,1.2342048,0.21430834,9.52033
128798310008353,0.77234596,0.16144192,10.129737
128798329862817,0.70876795,-0.3750082,10.14121
128798349717154,0.5210335,-0.5668587,9.601294
128798369578992,-0.07399613,-0.3639201,9.382361
128798389433584,0.112333484,-0.22244851,9.671373
128798409288177,0.69486946,-0.115668,9.906492
128798429142768,0.56457204,0.14057335,9.829085
128798448997361,0.41857186,0.21330559,9.804235
128798468851954,0.62887543,0.09260864,9.811804
128798488718073,0.4854977,0.011892785,9.755922
128798508572919,0.35722342,-0.15739907,9.624249
128798528427896,0.32069695,-0.35897627,9.683626
128798548282743,0.14024116,-0.41060174,9.778428
128798568133593,0.06804558,-0.28225157,9.614072
128798587988442,0.20354626,-0.22789758,9.584924
128798607843161,0.20643754,-0.24678306,9.746132
128798627698009,0.08077064,-0.18529098,9.773069
128798647552858,0.10928579,-0.11565282,9.684557
128798667410808,0.07739094,-0.10013489,9.667797
128798687265656,0.10883545,-0.17213805,9.71073
128798707120633,0.3766403,-0.3254652,9.73153
128798726975480,0.5094314,-0.39169633,9.644553
128798746830328,0.22826558,-0.3157556,9.807066
128798766685305,0.2741256,-0.30839786,10.017623
128798786539520,0.411635,-0.20699874,9.858105
128798806394497,0.4131842,-0.08067719,9.693166
128798826249474,0.35400802,-0.022621078,9.721598
128798846104323,0.38913688,-0.13398287,9.807848
128798865953382,0.3924966,-0.43428323,9.881493
128798885808231,0.3520165,-0.6473431,9.756366
128798905662952,0.19676402,-0.6716248,9.606487
128798925517801,0.15955542,-0.5283334,9.685346
128798945372522,0.2818879,-0.37543184,9.684034
128798965226329,0.36989665,-0.25060806,9.5976
128798985081050,0.32786673,-0.20983325,9.704874
128799004935771,0.29631916,-0.3044792,9.881097
128799024790620,0.3187124,-0.4794437,9.884295
128799044645341,0.31216198,-0.5316629,9.785222
128799064500062,0.28907028,-0.4723867,9.735357
128799084354191,0.28169602,-0.37539262,9.714423
128799104209040,0.18522646,-0.26268685,9.670254
128799124063761,0.25940207,-0.24557197,9.592176
128799143918610,0.34814322,-0.2372154,9.580458
128799163770179,0.31478092,-0.14092594,9.729807
128799183624900,0.38260868,-0.087534264,9.772449
128799203479621,0.34114724,-0.026970612,9.681317
128799223334193,0.37613556,-0.032551184,9.74494
128799243188914,0.48489356,-0.11910224,9.773072
128799263043635,0.3867145,-0.103446,9.711645
128799282886436,0.2764532,-0.10227719,9.674985
128799302740901,0.33343264,-0.20348509,9.634318
128799322595364,0.28283122,-0.24546917,9.646633
128799342449700,0.2780096,-0.2532742,9.693259
128799362304165,0.3188982,-0.25627366,9.72503
128799382148425,0.31644192,-0.20701891,9.826225
128799402002633,0.34348935,-0.18392466,9.936361
128799421856970,0.302363,-0.15623039,9.8143
128799441711305,0.21396127,-0.201042,9.67346
128799461568616,0.23647477,-0.3242052,9.750159
128799481422953,0.28550526,-0.40279797,9.68284
128799501277288,0.1777611,-0.3974767,9.650926
128799521131624,0.17933035,-0.3651946,9.839237
128799540985961,0.42315173,-0.373521,9.951239
128799560840296,0.36518058,-0.19193192,9.832533
128799580693377,0.23706052,-0.08498163,9.823448
128799600547714,0.21856482,-0.20258519,9.858174
128799620402049,0.22112112,-0.32553023,9.818668
128799640256385,0.15710501,-0.3941105,9.816742
128799660110722,0.20737422,-0.44956833,9.711027
128799679969496,0.15478787,-0.3973596,9.6813965
128799699823832,0.25416008,-0.3731064,9.960573
128799719678169,0.3425369,-0.3097011,10.011802
128799739532504,0.27076328,-0.18796414,9.845274
128799759388825,0.22248171,-0.17974032,9.878211
128799779243290,0.28737566,-0.27225706,9.874307
128799799097625,0.21370551,-0.27696776,9.745055
128799818951961,0.21703798,-0.32536322,9.849873
128799838806426,0.33355406,-0.43150535,9.893916
128799858660761,0.22310294,-0.42068362,9.828809
128799878510745,0.17741425,-0.32515022,9.825987
128799898364954,0.32337663,-0.21410625,9.82514
128799918219289,0.35890624,-0.120480314,9.907041
128799938073498,0.40930536,-0.15053175,9.976362
128799957927707,0.37600282,-0.18024912,9.870935
128799977788842,0.3136911,-0.2249927,9.787449
128799997643307,0.39191842,-0.2980379,9.859935
128800017497644,0.20798554,-0.21278723,9.86049
128800037351981,0.15441902,-0.12142172,9.762047
128800057215478,0.23942971,-0.15432055,9.874393
128800077070199,0.29993075,-0.21538356,10.024458
128800096924792,0.27590168,-0.17949958,9.871385
128800116779385,0.14780974,-0.14107892,9.815923
128800136634106,0.21051197,-0.23623477,9.8242445
128800156488699,0.2303626,-0.19734043,9.77752
128800176346814,0.21007025,-0.16633366,9.813495
128800196201407,0.2243863,-0.14109044,9.832978
128800216056128,0.26604682,-0.15019026,9.937511
128800235910835,0.34418783,-0.19742344,10.036972
128800255765556,0.30021733,-0.19924065,9.717469
128800275626017,0.08894361,-0.14805733,9.668297
128800295480865,0.2687369,-0.28284368,9.936555
128800315335714,0.3302662,-0.2913335,9.956221
128800335190561,0.22765599,-0.22317597,9.751647
128800355045409,0.17082809,-0.21640112,9.806553
128800374900258,0.2467773,-0.29193816,9.924681
128800394762055,0.25218365,-0.3087611,9.84046
128800414617159,0.19939238,-0.28226984,9.753071
128800434472136,0.20970726,-0.2913439,9.900187
128800454327111,0.25393173,-0.2722194,9.842526
128800474188835,0.24211127,-0.219136,9.757285
128800494043940,0.30066383,-0.253724,9.871339
128800513899171,0.31125855,-0.26762635,9.984132
128800533754275,0.2311718,-0.27767524,9.88432
128800553609508,0.24980693,-0.32168344,9.764935
128800573468281,0.25920275,-0.27355957,9.658613
128800593323641,0.25094897,-0.19913311,9.807002
128800613178874,0.3381138,-0.2634413,9.891322
128800633034233,0.26529682,-0.2357856,9.708302
128800652889465,0.19096737,-0.19948447,9.695953
128800672744826,0.34043762,-0.29416138,10.013178
128800692602649,0.44311768,-0.35517177,9.949607
128800712458009,0.32214555,-0.26207316,9.874169
128800732313370,0.30731755,-0.24184062,9.807139
128800752168857,0.33159417,-0.22579238,9.76008
128800772019104,0.3393924,-0.2466133,9.847577
128800791874465,0.40943468,-0.29347035,9.876313
128800811729824,0.3867752,-0.2670444,9.880311
128800831585184,0.37526056,-0.2176579,9.961636
128800851440545,0.39611572,-0.19554514,9.832862
128800871280022,0.33506203,-0.17787442,9.752385
128800891134998,0.31656623,-0.2103461,9.728089
128800910989975,0.39138854,-0.28430542,9.877186
128800930844950,0.39800122,-0.2540677,9.83488
128800950700054,0.3155721,-0.16254565,9.846913
128800970555031,0.40656847,-0.24190316,9.948768
128800990399382,0.44992566,-0.25626037,9.918
128801010254102,0.34484583,-0.1660214,9.846662
128801030108951,0.31760064,-0.20305295,9.919129
128801049963670,0.35631016,-0.28464016,9.858335
128801069812112,0.36477438,-0.2573549,9.786277
128801089666833,0.373517,-0.23267822,9.851186
128801109521424,0.42334968,-0.1681167,9.737704
128801129376016,0.2845979,-0.05618569,9.8404255
128801149230737,0.33760527,-0.10014019,9.915339
128801169085328,0.30489993,-0.09116396,9.865491
128801188933831,0.20032106,-0.15244973,9.800023
128801208788296,0.21387288,-0.27731112,9.766573
128801228642631,0.25249425,-0.37521976,9.807548
128801248497095,0.30320448,-0.3997137,9.789654
128801268351560,0.25018537,-0.2961103,9.768677
128801288201959,0.31858808,-0.17895117,9.876766
128801308056423,0.42290172,-0.17882906,10.005199
128801327910760,0.40166223,-0.19351341,10.00202
128801347765223,0.31161886,-0.17706724,9.858913
128801367618546,0.29196554,-0.19406357,9.78777
128801387472883,0.34086496,-0.27397892,9.877855
128801407322437,0.26195863,-0.28914845,9.755819
128801427176645,0.13920246,-0.25172004,9.71776
128801447030982,0.1696776,-0.24058975,9.773233
128801466885317,0.28455967,-0.2935971,9.909516
128801486737308,0.30659607,-0.2801116,9.975744
128801506591517,0.33149204,-0.25215277,9.915169
128801526445726,0.25251994,-0.18603082,9.8293295
128801546299807,0.252597,-0.20150875,9.887369
128801566154016,0.28002822,-0.2927108,9.912229
128801586010421,0.24115802,-0.3658432,9.763704
128801605864629,0.19986093,-0.35626224,9.678956
128801625718838,0.29472697,-0.3411769,9.8567915
128801645573045,0.35355857,-0.31357613,9.928825
128801665433362,0.2082394,-0.21395527,9.829207
128801685287571,0.20165676,-0.2665647,9.937566
128801705141906,0.35970107,-0.38893917,9.926915
128801724996114,0.2826543,-0.39793313,9.8462715
128801744850323,0.18879543,-0.40162915,9.819088
128801764704658,0.24985562,-0.39796424,9.758406
128801784558511,0.23946139,-0.24879758,9.835023
128801804412720,0.3133485,-0.18815468,9.850385
128801824266929,0.27773765,-0.1065898,9.81095
128801844121266,0.22229631,-0.08167055,9.893358
128801863975475,0.3149579,-0.18110119,9.928687
128801883827746,0.28800234,-0.2057496,9.836008
128801903681955,0.260888,-0.18932138,9.749596
128801923536164,0.22518189,-0.22443767,9.835174
128801943390245,0.34050372,-0.2926028,9.856526
128801963249286,0.39015794,-0.21508549,9.757904
128801983103623,0.35167184,-0.1094749,9.822583
128802002957960,0.31847408,-0.067632735,9.886161
128802022812297,0.39989635,-0.18333413,9.887804
128802042666634,0.36220637,-0.23842938,9.855302
128802062520843,0.32169324,-0.23248388,9.775017
128802082375948,0.3243669,-0.22803973,9.728557
128802102230285,0.4068793,-0.22604445,9.878688
128802122084622,0.44420865,-0.1684814,9.896836
128802141939087,0.36403033,-0.10134211,9.754934
128802161793424,0.32352057,-0.12675089,9.833509
128802181656821,0.38117307,-0.23000236,9.833494
128802201511414,0.43614596,-0.29509094,9.881669
128802221366007,0.4117236,-0.26784214,9.900155
128802241220600,0.34422272,-0.18528564,9.723418
128802261075297,0.3040909,-0.13075322,9.742992
128802280929890,0.37589794,-0.16201055,9.876487
128802300747296,0.37364587,-0.17106034,9.854671
128802320601248,0.2701564,-0.15813977,9.756308
128802340455329,0.28402287,-0.23162879,9.818116
128802360309280,0.31487143,-0.32337132,9.888192
128802380177806,0.2729962,-0.3268725,9.828188
128802400032015,0.2561067,-0.27380624,9.820124
128802419886350,0.26591533,-0.2023021,9.807609
128802439740558,0.3107315,-0.18251838,9.8836975
128802459594895,0.2942322,-0.23351702,9.939205
128802479454947,0.27098134,-0.25340402,9.781535
128802499309283,0.22637771,-0.26067936,9.728764
128802519163620,0.28868258,-0.2926518,9.935209
128802539017827,0.3678723,-0.2885312,9.937192
128802558872163,0.24692886,-0.18827207,9.787346
128802578726500,0.1354061,-0.20936245,9.824465
128802598584358,0.32196304,-0.2906457,9.887972
128802618438822,0.3766935,-0.31141123,9.917251
128802638293159,0.25582808,-0.1995666,9.9011
128802658147494,0.14397198,-0.14006706,9.7617445
128802678010279,0.2007378,-0.2198903,9.756412
128802697864744,0.29565313,-0.3407544,9.887543
128802717719207,0.315499,-0.32379678,9.932156
128802737573671,0.21359988,-0.20808098,9.822124
128802757428136,0.16131847,-0.17718099,9.858841
128802777289617,0.28940904,-0.23099491,9.873129
128802797144210,0.36020008,-0.21275803,9.845059
128802816998803,0.20491904,-0.0980222,9.797733
128802836853396,0.18030784,-0.119380504,9.7598
128802856707989,0.2694843,-0.21646446,9.733621
128802876562710,0.3160891,-0.27222583,9.859679
128802896412499,0.34858817,-0.20778634,9.957757
128802916266964,0.2990493,-0.072060525,9.8408985
128802936121429,0.2649038,-0.056628734,9.797508
128802955975894,0.3656387,-0.16181703,9.907808
128802975830463,0.37417838,-0.18565434,9.915086
128802995685056,0.28839487,-0.11552753,9.838716
128803015539521,0.24863522,-0.11451851,9.749931
128803035393986,0.33385924,-0.14879055,9.7221
128803055248579,0.3512524,-0.18496846,9.818888
128803075103044,0.34243715,-0.1721036,9.936818
128803094956413,0.32954565,-0.123206496,9.937914
128803114811006,0.32863253,-0.13132203,9.985716
128803134665471,0.37431183,-0.18472424,9.943205
128803154519936,0.30829215,-0.19139269,9.778098
128803174374529,0.24806404,-0.20454071,9.7347555
128803194230048,0.30782276,-0.21831061,9.748799
128803214084641,0.3618177,-0.19898601,9.725872
128803233939234,0.33026513,-0.18185237,9.945971
128803253793677,0.30515695,-0.17144646,9.908619
128803273647416,0.28505546,-0.20671104,9.866348
128803293502009,0.33671826,-0.26797074,9.894631
128803313356600,0.34592408,-0.22851408,9.914344
128803333211192,0.27428013,-0.14607662,9.790714
128803353065913,0.24487339,-0.19190925,9.782405
128803372920504,0.31206992,-0.27354604,9.769981
128803392780637,0.2946366,-0.20787655,9.8497715
128803412635358,0.27127162,-0.11206554,9.886603
128803432485185,0.31822285,-0.11412776,9.847728
128803452339906,0.29672346,-0.19209869,9.871747
128803472194627,0.29958135,-0.22489187,9.934067
128803492056676,0.30270332,-0.19122095,9.91004
128803511911521,0.23321372,-0.13238512,9.797167
128803531766370,0.19229776,-0.18209219,9.757062
128803551621345,0.3047594,-0.27082446,9.736711
128803571475968,0.31656227,-0.23635964,9.841743
128803591330945,0.28197533,-0.11263588,9.885108
128803611185920,0.2602508,-0.07870847,9.840818
128803631040768,0.2350113,-0.1645557,9.878253
128803650895745,0.23980832,-0.34738377,9.9762335
128803670750720,0.3015175,-0.45039,9.939936
128803690611737,0.16044167,-0.4570954,9.705254
128803710466842,0.1910718,-0.42693678,9.745749
128803730321945,0.35241726,-0.3938991,9.888417
128803750177049,0.36606032,-0.24293083,9.863974
128803770032026,0.27140003,-0.13644408,9.77315
128803789891018,0.2937046,-0.19023705,9.85169
128803809746250,0.3934691,-0.23617215,9.885977
128803829601611,0.36653486,-0.21626298,9.950571
128803849456842,0.32183835,-0.20050643,9.7981825
128803869293801,0.28123832,-0.19721341,9.771903
128803889148266,0.33565018,-0.1856884,9.884843
128803909002857,0.3860674,-0.17493458,9.923286
128803928857322,0.3003973,-0.12134052,9.854547
128803948711915,0.25840312,-0.17012656,9.8024235
128803968566380,0.3254005,-0.20554447,9.85687
128803988429222,0.32427737,-0.17917189,9.775168
128804008283943,0.2588058,-0.1295746,9.786111
128804028138662,0.28813702,-0.15538585,9.809916
128804047993510,0.32480162,-0.19586563,9.830152
128804067848231,0.329563,-0.16852541,9.892456
128804087707088,0.37758967,-0.16558413,9.937246
128804107561936,0.2999902,-0.10332663,9.791262
128804127416913,0.28739607,-0.071016684,9.7387705
128804147271760,0.36401686,-0.13468313,9.849822
128804167126608,0.34929535,-0.15594776,9.845146
128804186981457,0.30891111,-0.11810392,9.832029
128804206838322,0.29549462,-0.113715604,9.776732
128804226693298,0.33210325,-0.12450618,9.788281
128804246548147,0.34722844,-0.14861028,9.906775
128804266403122,0.32693407,-0.16217509,9.948385
128804286258903,0.26028422,-0.14845176,9.717335
128804306114008,0.24807006,-0.18909419,9.723682
128804325968985,0.37264606,-0.22619607,9.88398
128804345823959,0.39989746,-0.1877589,10.140044
128804365679064,0.3778074,-0.12472907,10.034817
128804385532607,0.25208485,-0.032834653,9.242228
128804405387711,-0.021105206,-0.15315916,9.811549
128804425242688,0.6979331,-0.41117424,10.14087
128804445097791,0.48188353,-0.15258548,9.792641
128804464952895,0.038250905,0.0054349434,9.6571865
128804484808000,0.22547,-0.17475802,9.913744
128804504660508,0.53016824,-0.30021366,9.917539
128804524515484,0.43230692,-0.20224386,9.788851
128804544370589,0.20595294,-0.0855127,9.845036
128804564225564,0.30112612,-0.092920594,9.980143
128804584079519,0.3677745,-0.14509703,9.855766
128804603934496,0.31607112,-0.27020362,9.80494
128804623789471,0.27388966,-0.2805943,9.745075
128804643644448,0.2605146,-0.1491753,9.724484
128804663499425,0.2874354,-0.13114658,9.877784
128804683355440,0.40983477,-0.18764213,9.942485
128804703210417,0.39541495,-0.1801038,9.924747
128804723065394,0.27701685,-0.12851813,9.8634405
128804742920371,0.24091235,-0.13509896,9.866064
128804762775476,0.33691248,-0.16920376,9.811683
128804782630453,0.2983865,-0.18445705,9.750496
128804802476828,0.25871453,-0.19717875,9.758583
128804822331677,0.25767404,-0.18757556,9.777096
128804842186398,0.29915386,-0.2121508,9.875224
128804862041247,0.37315327,-0.1940678,9.937558
128804881884850,0.34463814,-0.06585163,9.892987
128804901739315,0.29080036,-0.051586427,9.887519
128804921593780,0.28754205,-0.16637526,9.926435
128804941448373,0.33530027,-0.24766657,9.82007
128804961302838,0.2276289,-0.17535412,9.765966
128804981157303,0.20893751,-0.184617,9.686672
128805001002966,0.2599875,-0.18889573,9.74878
128805020857175,0.346481,-0.18976718,9.961717
128805040711512,0.3553648,-0.04294422,10.0149555
128805060565849,0.26751322,-0.011384615,9.873409
128805080420186,0.20756853,-0.15252928,9.875092
128805100278011,0.3393209,-0.3056589,9.805408
128805120132348,0.32430664,-0.24328582,9.7229805
128805139986813,0.20623438,-0.12108621,9.731388
128805159841150,0.15450415,-0.12939502,9.852269
128805179696401,0.372652,-0.23743013,9.951107
128805199550738,0.42258343,-0.20391177,9.9632
128805219405075,0.30242258,-0.11099325,9.981703
128805239259405,0.16306138,-0.10369044,9.929731
128805259113614,0.2338313,-0.24253546,9.798484
128805278967949,0.23252858,-0.33884445,9.773273
128805298827734,0.2578372,-0.2896452,9.738388
128805318682199,0.14960974,-0.13633615,9.705244
128805338536662,0.1680024,-0.12535037,9.811016
128805358391126,0.28450897,-0.2061372,9.884687
128805378245591,0.30243075,-0.22741461,9.910824
128805398096720,0.23920311,-0.16921574,9.942073
128805417951056,0.26881474,-0.17557329,9.829251
128805437805393,0.23965758,-0.19455105,9.829395
128805457659853,0.28075486,-0.19765997,9.84814
128805477507882,0.22796504,-0.13717242,9.774037
128805497362091,0.20860454,-0.11540265,9.821699
128805517216300,0.31098053,-0.18265882,9.8819685
128805537070509,0.29738623,-0.1529851,9.87926
128805556924846,0.2818467,-0.11006549,9.893782
128805576779050,0.26248935,-0.1152591,9.863318
128805596632094,0.2864324,-0.17737049,9.76097
128805616486303,0.24241886,-0.19773835,9.823789
128805636340510,0.29135388,-0.20463619,9.916278
128805656194718,0.32537493,-0.16680838,9.847108
128805676048927,0.24076517,-0.1309693,9.844652
128805695913154,0.27299544,-0.18030587,9.823288
128805715767618,0.298006,-0.21549316,9.8316965
128805735621955,0.3509127,-0.22389105,9.889014
128805755476418,0.314122,-0.16061926,9.888963
128805775328985,0.2469923,-0.123031124,9.786573
128805795183450,0.22059295,-0.14226854,9.771241
128805815037785,0.3370678,-0.2259703,9.876076
128805834892249,0.32707226,-0.16561809,9.869993
128805854746586,0.23495321,-0.062446415,9.738684
128805874601049,0.23841855,-0.09195578,9.8613
128805894459774,0.35800505,-0.24481033,9.995819
128805914314239,0.3236818,-0.20639533,9.834686
128805934168704,0.1935544,-0.12808062,9.788199
128805954023169,0.20117986,-0.156745,9.804196
128805973877634,0.30123314,-0.17485304,9.844175
128805993728075,0.3637162,-0.1674149,9.8983555
128806013582540,0.30941013,-0.10768665,9.854852
128806033436877,0.17271683,-0.083278365,9.812431
128806053291214,0.22672011,-0.23719892,9.795951
128806073145679,0.28369173,-0.30209368,9.804905
128806093000016,0.26476634,-0.17115712,9.886466
128806112859271,0.24786496,-0.10249017,9.87091
128806132713736,0.21664353,-0.14520295,9.836868
128806152568201,0.24206112,-0.23718278,9.882965
128806172422666,0.25980875,-0.2437803,9.879179
128806192288681,0.2607828,-0.20230518,9.870562
128806212143402,0.20524299,-0.16413333,9.766435
128806231998123,0.24963605,-0.21969277,9.7956
128806251852829,0.29564378,-0.26341224,9.795484
128806271707550,0.31555432,-0.22174144,9.853863
128806291568567,0.24848177,-0.16132055,9.992895
128806311423415,0.31893483,-0.18868193,9.936852
128806331278392,0.296311,-0.17887102,9.779272
128806351133367,0.22373609,-0.1677979,9.761895
128806370988215,0.28504884,-0.24160369,9.90157
128806390843192,0.2838871,-0.22199766,9.819482
128806410699100,0.21277718,-0.17033373,9.7944355
128806430554076,0.22384365,-0.16665305,9.723209
128806450409053,0.29794115,-0.18842374,9.811312
128806470264028,0.359867,-0.19937637,9.99473
128806490117438,0.3509407,-0.1499514,10.04471
128806509972287,0.22652625,-0.075774536,9.778786
128806529827262,0.25156677,-0.18388154,9.786037
128806549682238,0.33076012,-0.29328632,9.827601
128806569537087,0.2753806,-0.20193925,9.725971
128806589387352,0.18847035,-0.19650312,9.812472
128806609242200,0.297935,-0.2415202,9.839726
128806629096921,0.33641154,-0.1891003,9.890356
128806648951768,0.36594483,-0.13363984,10.009359
128806668806488,0.33380982,-0.10105564,9.982489
128806688661337,0.23078187,-0.14473023,9.777887
128806708519988,0.21473633,-0.25427628,9.781563
128806728374836,0.3003856,-0.29828918,9.75023
128806748229685,0.23340923,-0.18754405,9.744434
128806768084660,0.19339341,-0.14151998,9.871891
128806787937519,0.2901808,-0.19220264,9.85192
128806807792496,0.28220433,-0.17991424,9.8453245
128806827647343,0.24553561,-0.102326326,9.879195
128806847502320,0.26226366,-0.14494598,10.008072
128806867357169,0.27166152,-0.16478239,9.893561
128806887210810,0.201333,-0.14137633,9.817363
128806907065787,0.1809244,-0.15610826,9.732531
128806926920636,0.23404582,-0.14112666,9.637969
128806946775613,0.2631598,-0.12785262,9.798854
128806966630590,0.34095737,-0.12074069,9.936251
128806986485439,0.3034427,-0.10062842,9.975323
128807006334176,0.23575582,-0.15046959,9.953606
128807026189025,0.25060037,-0.22417282,9.814208
128807046043874,0.2460996,-0.1685646,9.779059
128807065898723,0.20842445,-0.12911606,9.76633
128807085750110,0.16404998,-0.18143183,9.748156
128807105604831,0.23401915,-0.26065305,9.836299
128807125459552,0.28780255,-0.2486115,9.887466
128807145314145,0.24498183,-0.15181045,9.943775
128807165168866,0.25222158,-0.13384767,9.861761
128807185023587,0.27135164,-0.17830896,9.876443
128807204870634,0.26890904,-0.24047583,9.9316435
128807224725099,0.17075087,-0.21543083,9.745078
128807244579672,0.09964268,-0.27167597,9.759068
128807264434136,0.18031065,-0.355028,9.823718
128807284288601,0.3020811,-0.2547781,9.85372
128807304145318,0.2233675,-0.055663653,9.894496
128807323999910,0.22266278,-0.105997,9.878661
128807343854503,0.20815274,-0.29170832,9.806861
128807363709094,0.22095446,-0.33523467,9.920072
128807383559628,0.27315554,-0.24136148,9.998201
128807403414093,0.25994164,-0.11740043,9.759232
128807423268428,0.15824449,-0.13945702,9.66906
128807443123638,0.23039275,-0.2692096,9.832823
128807462978103,0.32544282,-0.27212957,9.935905
128807482832440,0.20184974,-0.14833969,9.942473
128807502681621,0.19332853,-0.16372193,9.848452
128807522535958,0.25722355,-0.23658618,9.812791
128807542390295,0.26332074,-0.22283167,9.797542
128807562244626,0.20045345,-0.16439931,9.90185
128807582098963,0.19325024,-0.16594419,9.79977
128807601950456,0.22489296,-0.22412704,9.880166
128807621804664,0.2993989,-0.27857986,9.8503275
128807641658873,0.18940888,-0.22219425,9.806055
128807661512952,0.14558583,-0.22628434,9.872453
128807681373221,0.27914974,-0.3178817,9.889041
128807701227430,0.27178758,-0.28266641,9.836603
128807721081765,0.20072025,-0.20472533,9.783706
128807740935973,0.17793098,-0.24507338,9.864148
128807760790310,0.29406595,-0.3047986,9.90562
128807780644517,0.2511635,-0.21041822,9.838137
128807800506263,0.18370746,-0.14452034,9.842588
128807820360728,0.21616459,-0.21800785,9.875414
128807840215191,0.22995253,-0.23504114,9.834307
128807860069656,0.17326252,-0.2295788,9.883421
128807879924121,0.2092862,-0.21353237,9.80374
128807899785388,0.1959568,-0.23446338,9.763119
128807919639977,0.2133325,-0.2862251,9.927562
128807939494570,0.24980296,-0.21098009,9.926953
128807959349161,0.1743905,-0.10533679,9.776583
128807979180445,0.15855324,-0.16695793,9.780018
128807999034654,0.26948985,-0.29095367,9.809652
128808018888861,0.2242997,-0.23988472,9.859748
128808038742941,0.17745472,-0.15546775,9.863964
128808058597150,0.20467617,-0.18855792,9.853544
128808078451357,0.26443365,-0.2574041,9.889369
128808098310545,0.30130532,-0.23075527,9.949325
128808118164882,0.22049376,-0.12556417,9.826302
128808138019091,0.13492084,-0.14118297,9.801084
128808157873428,0.19945742,-0.29408115,9.761632
128808177727637,0.2148624,-0.3181448,9.778169
128808197591726,0.19839622,-0.23517531,9.81018
128808217446185,0.18031,-0.18440694,9.801608
128808237300650,0.22088134,-0.21980669,9.831959
128808257155113,0.27906212,-0.21667448,9.911173
128808277009449,0.31383443,-0.1925306,9.931773
128808296863914,0.18288621,-0.12932052,9.823597
128808316726563,0.15164359,-0.26403955,9.844145
128808336581283,0.2035324,-0.37123108,9.843713
128808356435876,0.20744747,-0.27748388,9.76744
128808376290595,0.15526095,-0.1753958,9.721903
128808396150027,0.20995954,-0.2050611,9.77582
128808416004748,0.2937585,-0.24092138,9.891095
128808435859467,0.27924445,-0.18471026,9.951946
128808455714187,0.19336979,-0.13911892,9.952341
128808475568908,0.17462279,-0.24206342,9.822894
128808495423755,0.20417134,-0.338628,9.865191
128808515275746,0.2088272,-0.2372118,9.45073
128808535130467,0.027348695,-0.09754781,9.721821
128808554985186,0.27639252,-0.30554903,10.160549
128808574839907,0.4900873,-0.31504247,9.950178
128808594694628,0.14584747,0.0067235036,9.704914
128808614554997,0.12277042,-0.104985975,9.912443
128808634409845,0.3545907,-0.3229601,9.935057
128808654264694,0.26914173,-0.23117524,9.752087
128808674119413,0.1184761,-0.14709468,9.73803
128808693985556,0.17500396,-0.20618881,9.799333
128808713840661,0.29625222,-0.31209105,9.858527
128808733695636,0.2805971,-0.22270203,9.832307
128808753550740,0.21342431,-0.07979006,9.8491
128808773405845,0.24834822,-0.09073092,9.874391
128808793260820,0.28763914,-0.22283186,9.976414
128808813110151,0.31346232,-0.30103105,9.981593
128808832965128,0.22207916,-0.17647472,9.693061
128808852820105,0.13914509,-0.09277737,9.629257
128808872675082,0.2955114,-0.19266498,9.754742
128808892530059,0.39667457,-0.18980128,9.855087
128808912387200,0.26571605,-0.03916907,9.883978
128808932242177,0.2307408,-0.05465163,9.926482
128808952097282,0.2968144,-0.22357097,9.868578
128808971952259,0.26793233,-0.30540544,9.867905
128808991797154,0.2452578,-0.209614,9.881171
128809011652003,0.23027684,-0.13744064,9.819558
128809031506852,0.20530285,-0.14405005,9.734657
128809051361829,0.2912443,-0.17155316,9.791308
128809071216678,0.3143042,-0.1368691,9.834524
128809091071527,0.26668918,-0.06984398,9.839056
128809110920244,0.24366355,-0.122979224,9.941242
128809130774965,0.30156657,-0.22776182,9.824807
128809150629686,0.19715214,-0.19749469,9.79013
128809170484407,0.17467248,-0.19236575,9.875525
128809190339128,0.20252301,-0.1894222,9.830958
128809210190541,0.18658641,-0.17930895,9.805065
128809230045134,0.21413022,-0.18750793,9.918266
128809249899855,0.2307182,-0.12724927,9.8228245
128809269754426,0.20198138,-0.08147297,9.817681
128809289609018,0.24349153,-0.1607536,9.942264
128809309463739,0.32942364,-0.2369316,9.786791
128809329316233,0.17267416,-0.119235694,9.783589
128809349170953,0.17818114,-0.15832998,9.871096
128809369025546,0.25051582,-0.23664986,9.921589
128809388880137,0.33266735,-0.28987026,9.925821
128809408741209,0.27357897,-0.11983257,9.905146
128809428595930,0.2242475,-0.021916598,9.8504095
128809448450777,0.23220979,-0.12181095,9.838786
128809468305497,0.22882533,-0.2765409,9.840254
128809488160346,0.185654,-0.21787804,9.781531
128809508010077,0.06770574,-0.13181685,9.776641
128809527864926,0.1358624,-0.21843831,9.886605
128809547719775,0.22708212,-0.2992243,9.909776
128809567574624,0.13884051,-0.18235804,9.840258
128809587429473,0.04890171,-0.16673718,9.854683
128809607284322,0.10775529,-0.29726034,9.818985
128809627126583,0.15856704,-0.33490822,9.882297
128809646980914,0.17142329,-0.21946715,9.931049
128809666835251,0.13472657,-0.10354395,9.899053
128809686689586,0.15991876,-0.14498997,9.7646475
128809706549396,0.1869892,-0.19592556,9.80882
128809726403733,0.27678862,-0.21881412,9.842079
128809746258196,0.1658504,-0.087948784,9.779812
128809766112660,0.12140844,-0.15873155,9.907635
128809785966997,0.26151484,-0.3457973,9.836173
128809805824830,0.16580918,-0.30111575,9.6700735
128809825679422,0.0069317184,-0.2273343,9.813589
128809845533887,0.057977024,-0.27895302,9.849931
128809865388350,0.10027962,-0.34002608,9.818731
128809885242942,0.1272593,-0.3475947,9.901157
128809905097407,0.15705179,-0.2425361,9.888925
128809924953333,0.12777011,-0.14607461,9.8573265
128809944807925,0.22792082,-0.23033166,9.827596
128809964662390,0.27743736,-0.27495116,9.836054
128809984516983,0.2059479,-0.20481148,9.846037
128810004375210,0.22047083,-0.17035238,9.921098
128810024229803,0.2569261,-0.17037734,9.889297
128810044084392,0.26172313,-0.16343802,9.894429
128810063939112,0.1926717,-0.20291814,9.910247
128810083793705,0.13031879,-0.2547123,9.908503
128810103648296,0.11831268,-0.26530766,9.762545
128810123498617,0.07775959,-0.22366457,9.737134
128810143353082,0.16252533,-0.23113954,9.767393
128810163207545,0.17495279,-0.21064152,9.76354
128810183062137,0.17644274,-0.16510402,9.921868
128810202916602,0.25683355,-0.16005735,9.938444
128810222782646,0.20810667,-0.116849124,9.923894
128810242637494,0.19486757,-0.14211535,9.896576
128810262492215,0.23580565,-0.23717235,9.860367
128810282346936,0.16409566,-0.22970438,9.793272
128810302202392,0.068512,-0.18350914,9.821833
128810322057241,0.15972285,-0.2587029,9.75103
128810341912216,0.21918611,-0.22078651,9.7500305
128810361767064,0.25966802,-0.13175818,9.900231
128810381622041,0.24944356,-0.066252574,9.884578
128810401476888,0.12466654,-0.11187169,9.8988695
128810421335546,0.14148581,-0.2649318,9.893166
128810441190523,0.16520405,-0.2958556,9.895805
128810461045498,0.0911867,-0.18384299,9.806318
128810480900474,0.16647077,-0.15374248,9.662694
128810500755451,0.21253702,-0.18549424,9.821621
128810520610129,0.23013395,-0.20326117,9.966994
128810540465234,0.17617692,-0.163942,9.88008
128810560320211,0.08146569,-0.18727385,9.814608
128810580175316,0.11663054,-0.2669129,9.75576
128810600023863,0.17845875,-0.25867596,9.815479
128810619878712,0.20321926,-0.21194088,9.855436
128810639733689,0.1558163,-0.19095907,9.781172
128810659588538,0.1335911,-0.23025447,9.811907
128810679443387,0.2323593,-0.276784,9.94179
128810699298236,0.2585718,-0.19231677,9.857472
128810719153111,0.17388324,-0.09242189,9.886998
128810739007960,0.1927539,-0.2065999,9.891277
128810758862937,0.1627127,-0.2705734,9.724309
128810778717786,0.054667298,-0.2486432,9.855619
128810798572635,0.11361543,-0.29499117,9.857654
128810818421588,0.15577751,-0.22312994,9.723215
128810838276309,0.19807003,-0.14692287,9.844885
128810858131030,0.286376,-0.15098101,9.906166
128810877985751,0.24367051,-0.12878783,9.875664
128810897840472,0.17494316,-0.16748776,9.891452
128810917695321,0.21838674,-0.22137466,9.869274
128810937543686,0.19160134,-0.18161936,9.82832
128810957398279,0.17449437,-0.13872932,9.809571
128810977252744,0.219914,-0.15312214,9.815056
128810997107313,0.22185586,-0.15169673,9.791506
128811016957146,0.17766121,-0.09339446,9.703608
128811036811611,0.1546545,-0.123374715,9.827895
128811056666204,0.22364949,-0.21165259,9.863864
128811076520669,0.21580337,-0.18293206,9.8896
128811096375134,0.24464959,-0.19298993,9.93525
128811116226369,0.22920431,-0.120245755,9.807236
128811136080706,0.17905273,-0.09183066,9.774946
128811155935043,0.25724474,-0.18277085,9.871741
128811175789380,0.28224283,-0.1517935,9.896949
128811195643845,0.20822518,-0.05678495,9.751417
128811215498182,0.14810406,-0.10798547,9.768829
128811235361503,0.22349146,-0.27094123,9.77463
128811255216083,0.22281903,-0.24160613,9.879652
128811275070548,0.22404782,-0.16853528,9.877384
128811294925011,0.22779612,-0.09187803,9.7187195
128811314784272,0.268257,-0.1767561,9.873614
128811334638993,0.38727352,-0.28520566,10.015714
128811354493584,0.30441827,-0.12895626,9.914487
128811374348176,0.18425529,-0.08647891,9.853032
128811394202897,0.25281602,-0.22411817,9.795508
128811414054611,0.26443726,-0.28597,9.790499
128811433909204,0.20563433,-0.23072173,9.853868
128811453763797,0.1857124,-0.1660426,9.86417
128811473618387,0.17664208,-0.13485594,9.855175
128811493472979,0.17816633,-0.16551672,9.865478
128811513327572,0.1443155,-0.20361495,9.819333
128811533177007,0.11446728,-0.2272222,9.778218
128811553031471,0.13712174,-0.24409224,9.833918
128811572885936,0.17004995,-0.19380909,9.87372
128811592740527,0.20471172,-0.14779723,9.778634
128811612596803,0.20064506,-0.13627112,9.842547
128811632451268,0.2564575,-0.20209976,9.984775
128811652305731,0.32008958,-0.17739183,9.878173
128811672161849,0.25947833,-0.08738334,9.784545
128811692016314,0.22565462,-0.12325209,9.977001
128811711870779,0.3312598,-0.24384545,9.907486
128811731730764,0.1693893,-0.18084654,9.854298
128811751585357,0.16599573,-0.18376884,9.736711
128811771439822,0.14985561,-0.18948415,9.745953
128811791294415,0.2599207,-0.22491808,9.914391
128811811149008,0.24183576,-0.13976564,10.049044
128811831007873,0.19168176,-0.05995216,9.809723
128811850862594,0.060188074,-0.10196429,9.831538
128811870717315,0.15228583,-0.29865783,9.875086
128811890572036,0.15266564,-0.33195272,9.839024
128811910428183,0.034725953,-0.2206982,9.760197
128811930282904,0.0057623154,-0.13521923,9.764956
128811950137625,0.19279824,-0.17755644,9.817149
128811969992346,0.24529059,-0.13789418,9.915968
128811989847067,0.22173403,-0.095339715,9.909834
128812009701788,0.12873796,-0.06199506,9.858664
128812029552749,0.1709805,-0.17429106,9.76555
128812049407470,0.199508,-0.2160604,9.7926445
128812069262191,0.20196488,-0.16293508,9.764617
128812089116912,0.14595874,-0.15043078,9.864462
128812108971633,0.19312014,-0.20355716,9.8618355
128812128831116,0.268785,-0.22112405,9.929115
128812148685943,0.32909548,-0.1327276,9.956987
128812168540664,0.22366853,-0.044754766,9.881171
128812188395513,0.19168341,-0.12255295,9.873054
128812208250776,0.1831502,-0.21306752,9.868261
128812228105625,0.16341263,-0.22292885,9.8024025
128812247960474,0.048174445,-0.13545561,9.712791
128812267815190,0.117138736,-0.20738915,9.768149
128812287670039,0.22024779,-0.317413,9.965594
128812307524886,0.17508882,-0.18420565,9.940295
128812327379637,0.008382848,-0.042410433,9.833919
128812347234486,0.09143281,-0.24954394,9.8948345
128812367089333,0.2002627,-0.36610124,9.92096
128812386944181,0.11643609,-0.16824134,9.799411
128812406799030,0.0010823555,-0.063237265,9.777982
128812426657573,0.14325258,-0.21342055,9.685476
128812446512421,0.1667539,-0.28279474,9.915198
128812466367398,0.21830666,-0.22606009,9.984468
128812486222245,0.14122155,-0.07895142,9.860605
128812506071962,0.08942636,-0.096843615,9.818161
128812525926811,0.11804265,-0.27515668,9.944151
128812545781530,0.19088118,-0.32306266,9.901833
128812565636378,0.016034417,-0.15113735,9.777642
128812585491227,-0.004649235,-0.10333814,9.714633
128812605345946,0.20907122,-0.23586316,9.770912
128812625199149,0.29970917,-0.22083123,9.82913
128812645053870,0.24308752,-0.06815868,9.879171
128812664908589,0.21588196,0.009317059,9.923079
128812684763309,0.348887,-0.12729597,9.926626
128812704618030,0.27437082,-0.15050384,9.908691
128812724478663,0.20237158,-0.11673039,9.831915
128812744333512,0.14648658,-0.122910544,9.697817
128812764188361,0.15375556,-0.1909205,9.856152
128812784043082,0.23868594,-0.19661148,9.852887
128812803897931,0.18022545,-0.109280705,9.847218
128812823752780,0.17418326,-0.12656978,9.894121
128812843608797,0.22844192,-0.2141851,9.884102
128812863463774,0.20880213,-0.22673765,9.832551
128812883318623,0.16848354,-0.1696816,9.854382
128812903173600,0.1808558,-0.21863025,9.839889
128812923028311,0.17846167,-0.23464024,9.854713
128812942883160,0.26001722,-0.1939244,9.858459
128812962738137,0.21571974,-0.09211722,9.823506
128812982593114,0.1618012,-0.08238686,9.805961
128813002448091,0.20750296,-0.18151382,9.839393
128813022291164,0.20222479,-0.21159044,9.849394
128813042145885,0.18660934,-0.17933552,9.805095
128813062000606,0.15533808,-0.17124148,9.771643
128813081855199,0.20126662,-0.1951804,9.892498
128813101709920,0.27899426,-0.16328336,9.978963
128813121564641,0.2848287,-0.06968836,9.802398
128813141412894,0.15468174,-0.058487546,9.754785
128813161267359,0.17060283,-0.19189844,9.832279
128813181121824,0.25391036,-0.2736838,9.968669
128813200976394,0.16930756,-0.14989722,9.825111
128813220833425,0.066192284,-0.059256006,9.684069
128813240687890,0.14690936,-0.20776881,9.857124
128813260542481,0.28577363,-0.33554938,9.984889
128813280396945,0.23244238,-0.16819076,9.961668
128813300251538,0.09362833,-0.0037338326,9.878367
128813320102976,0.11612432,-0.1082719,9.803215
128813339957440,0.1532555,-0.24504557,9.688778
128813359812033,0.11582327,-0.23269504,9.792378
128813379666496,0.093822144,-0.15374352,9.848408
128813399520960,0.080695376,-0.14016676,9.890906
128813419375553,0.18725058,-0.2256038,9.971204
128813439224927,0.23934196,-0.19953313,9.920532
128813459079391,0.120944135,-0.072611384,9.815588
128813478933728,0.06711123,-0.10078424,9.838982
128813498788191,0.13618746,-0.16222796,9.741633
128813518643320,0.12663653,-0.17694084,9.793657
128813538497657,0.14243077,-0.14652403,9.909171
128813558352120,0.16589397,-0.12247726,9.859291
128813578206584,0.13165285,-0.06462267,9.828401
128813598060921,0.22705396,-0.077106774,9.967542
128813617915384,0.26916856,-0.08479453,9.88564
128813637768277,0.13104673,-0.070914745,9.743294
128813657622614,0.14785472,-0.14859457,9.810216
128813677476949,0.2004531,-0.18506187,9.894842
128813697331157,0.15001503,-0.11504474,9.722411
128813717185494,0.10959488,-0.070285596,9.743689
128813737043255,0.23366718,-0.1663102,9.949444
128813756897591,0.30560943,-0.11797952,9.922989
128813776752056,0.17138192,0.04350355,9.9025345
128813796604729,0.09101826,-0.0076298113,9.859718
128813816457266,0.14137381,-0.12679815,9.726388
128813836311603,0.11701197,-0.24089114,9.857921
128813856165940,0.1924676,-0.2366068,9.786824
128813876020277,0.111368634,-0.07509088,9.647717
128813895874614,0.124131575,-0.04732204,9.866572
128813915728951,0.33907244,-0.13207439,10.040448
128813935584696,0.34586403,-0.05603392,9.927425
128813955439033,0.1369005,0.032943837,9.859628
128813975293370,0.21029407,-0.11473956,9.949518
128813995147707,0.26693812,-0.23228866,9.862973
128814015002044,0.13724731,-0.14439367,9.697146
128814034861171,0.16597798,-0.19310252,9.776743
128814054715636,0.17410955,-0.18191259,9.788871
128814074569973,0.28828168,-0.18726224,9.938602
128814094424438,0.25361255,-0.07841129,9.978236
128814114284675,0.19401976,-0.006913473,9.794728
128814134139140,0.16301611,-0.13324736,9.944375
128814153993733,0.38741267,-0.31191456,9.95215
128814173848198,0.21559723,-0.106286705,9.650603
128814193702791,0.045677934,-0.0018081213,9.642119
128814213557256,0.15552577,-0.16053574,9.88613
128814233413847,0.3770714,-0.23059087,9.984317
128814253268440,0.3177188,-0.066207856,9.921631
128814273123031,0.108447835,0.10107062,9.840558
128814292977623,0.23837568,-0.05336083,9.861895
128814312832216,0.29477385,-0.16185842,9.888052
128814332693570,0.27503037,-0.09503762,9.802513
128814352548290,0.15464063,0.023332577,9.783338
128814372403139,0.19146623,-0.029967684,9.78886
128814392257986,0.29519755,-0.10210488,9.859732
128814412112464,0.32554123,-0.067364015,9.757749
128814431967313,0.1525648,0.012084888,9.911261
128814451822160,0.25721622,-0.122756556,9.9789095
128814471677008,0.21555483,-0.11366449,9.808111
128814491531857,0.18906261,-0.12772869,9.854439
128814511386706,0.19562294,-0.13464709,9.923695
128814531234153,0.21103433,-0.11476837,9.758958
128814551088874,0.14486378,-0.10080085,9.80513
128814570943593,0.2455058,-0.117942706,9.841372
128814590798441,0.24393417,-0.10044092,9.770708
128814610653162,0.17243499,-0.115339756,9.963356
128814630510284,0.31711018,-0.18270174,10.009561
128814650365004,0.22895592,-0.06159007,9.790082
128814670219725,0.08748932,-0.10541026,9.7515135
128814690074444,0.19249211,-0.27611312,9.854951
128814709929164,0.23832303,-0.2863165,9.872809
128814729783885,0.2187976,-0.11184808,9.949036
128814749642286,0.14942634,0.012491607,9.832587
128814769497134,0.1180529,-0.03354517,9.743321
128814789351855,0.1899808,-0.1897799,9.791739
128814809206702,0.20602977,-0.20225132,9.940185
128814829064633,0.15905869,-0.096492946,9.884557
128814848919610,0.093020774,-0.047222987,9.803319
128814868774459,0.14705837,-0.113387264,9.913508
128814888629436,0.29769132,-0.1687492,9.909363
128814908484413,0.12545466,-0.0027160705,9.825693
128814928333136,0.090576194,0.007809294,9.773793
128814948187985,0.13994823,-0.095835745,9.769439
128814968042706,0.26474047,-0.22875047,9.929838
128814987897555,0.22197439,-0.147435,9.833161
128815007752276,0.11142405,-0.017616695,9.718266
128815027607125,0.12217644,-0.009489544,9.987992
128815047453136,0.30090788,-0.11346534,10.154153
128815067307729,0.27523217,-0.026485143,9.743539
128815087162322,0.046180874,0.018871995,9.59721
128815107016915,0.08178475,-0.13444093,9.9274645
128815126866988,0.34432155,-0.23168613,9.870568
128815146721453,0.15117607,-0.023538696,9.693444
128815166575918,0.105915435,0.016911186,9.762678
128815186430383,0.22389787,-0.07136989,9.882108
128815206284976,0.35870013,-0.089581095,10.036716
128815226139441,0.27292854,0.03352468,9.951551
128815246001221,0.07229971,0.16693689,9.689247
128815265855814,0.11442981,-0.004409239,9.803337
128815285710405,0.3061008,-0.22418286,9.87181
128815305564997,0.19738285,-0.092590146,9.675326
128815325419590,0.04592934,0.012862333,9.792081
128815345275175,0.17160681,-0.058949374,10.012105
128815365129895,0.39432582,-0.14322552,10.008463
128815384984488,0.2924097,-0.0075324522,9.913676
128815404839079,0.13611148,0.040955447,9.847467
128815424691910,0.14521813,-0.028459873,9.787216
128815444546375,0.19214195,-0.15130836,9.796535
128815464400968,0.23825113,-0.21655217,9.751903
128815484255561,0.14100009,-0.16477434,9.781119
128815504110026,0.09038482,-0.094548285,9.898123
128815523964619,0.18512815,-0.15380844,10.010661
128815543817696,0.32591903,-0.17654923,9.85114
128815563672161,0.12879409,-0.028160062,9.765021
128815583526624,0.1334395,-0.0365427,9.987091
128815603381216,0.32452756,-0.12889598,9.895268
128815623235681,0.22765318,-0.078126386,9.695955
128815643091650,0.18693055,-0.06589355,9.793154
128815662946114,0.21621005,-0.05304893,9.871689
128815682800707,0.27132118,-0.057042275,9.888913
128815702655170,0.34133554,-0.088744015,10.019277
128815722513909,0.34634215,0.0048298845,9.855169
128815742368630,0.2284096,0.07759118,9.82327
128815762223223,0.3274312,0.06856881,9.915825
128815782077944,0.4266812,0.028439661,9.831387
128815801932537,0.24619909,0.057826303,9.948882
128815821787258,0.33409595,-0.033857036,10.0387745
128815841641729,0.32768726,-0.06432664,10.033425
128815861496322,0.3441103,-0.03345105,10.089889
128815881351043,0.36882606,-0.008960047,10.096637
128815901205764,0.3161284,0.020596093,9.9120245
128815921060357,0.25238115,0.022173727,9.924725
128815940915590,0.26584032,-0.061070174,9.971003
128815960770311,0.29967278,-0.0873456,9.895679
128815980625032,0.23202091,-0.10117359,9.918245
128816000479753,0.2416716,-0.11371362,10.144374
128816020334346,0.40025222,-0.07620718,10.058131
128816040189067,0.29392946,0.015935227,9.944801
128816060041114,0.11655063,0.024519352,9.936842
128816079895835,0.2390958,-0.07854819,10.037205
128816099750428,0.33247834,-0.11453267,10.014482
128816119605149,0.21569467,-0.016362494,9.854673
128816139458736,0.12089067,0.0026413389,9.843921
128816159313201,0.28522655,-0.102731906,9.998509
128816179167794,0.34448254,-0.07908275,10.160653
128816199022236,0.3300066,0.062106416,10.032329
128816218876829,0.20921911,0.10835067,9.949997
128816238734832,0.26582545,0.057343487,10.111759
128816258589550,0.37386802,0.055046026,10.003796
128816278444143,0.220553,0.16372189,9.900442
128816298298862,0.17425802,0.1957575,9.8357315
128816318153454,0.19256625,0.17771015,9.841419
128816338008175,0.21747775,0.0869709,9.953895
128816357825996,0.32062742,-0.015413455,10.038747
128816377680076,0.29632476,-0.050909195,10.002561
128816397534029,0.29489824,-0.04097121,10.028403
128816417388108,0.39842296,-0.03202194,10.050011
128816437258976,0.4644822,-0.012029091,10.051822
128816457113313,0.5546464,0.02293108,10.056407
128816476967648,0.59254366,0.029029956,10.09983
128816496821985,0.56214905,0.052108422,10.138529
128816516676194,0.58958346,0.06068935,10.077144
128816536537413,0.79824716,0.0471988,9.901641
128816556391874,0.90638506,0.083496116,9.759935
128816576246339,1.0429676,0.0016210226,9.702446
128816596100674,1.1277907,-0.089398734,9.66124
128816615955138,1.1446,-0.30055338,9.714362
128816635809603,0.8940559,-0.35842836,10.126555
128816655669790,0.53445977,-0.40844387,10.711579
128816675524254,0.69870865,-0.645033,10.907275
128816695378719,0.67082417,-0.25241596,10.561095
128816715233182,0.58503515,0.17121112,9.966069
128816735087796,1.3442671,0.033966947,9.813912
128816754942261,1.6133063,-0.10205217,10.168245
128816774796724,0.6107439,-0.15849108,10.239135
128816794651060,0.44701904,-0.084423564,9.899693
128816814505525,0.97699356,-0.023319775,9.582748
128816834365526,0.7432349,0.10641697,9.649095
128816854220118,0.6620207,0.111555666,9.78656
128816874074711,0.92562187,0.15272778,9.850815
128816893929302,0.6965085,-0.2360319,9.47577
128816913783894,0.7451466,-0.1006361,9.492407
128816933638487,1.2387632,-0.20409769,9.908708
128816953493066,1.4928803,-0.66611123,10.157607
128816973347658,1.8540839,-0.5851379,10.098192
128816993202251,2.610091,-0.43921408,10.210447
128817013056842,3.1226265,-0.23652753,10.646221
128817032913392,3.9046328,-0.0032701672,10.687239
128817052767985,4.7972355,0.07802621,9.8978195
128817072622704,4.6270394,0.2783713,8.688738
128817092477296,3.867708,0.83234966,8.207121
128817112332017,2.8418238,1.1838269,8.351653
128817132186608,0.20412801,1.9878443,9.20845
128817152045331,-4.788114,-0.16544431,14.326357
128817171900052,-9.354303,-3.092268,16.054234
128817191754771,-4.04767,-4.9877763,9.278621
128817211609491,-1.622156,-1.7116135,6.3085527
128817231464212,-5.223394,0.4642934,8.202294
128817251320187,-5.7703238,-0.8563157,8.978589
128817271174907,-3.2569041,-0.53054655,9.767887
128817291029756,-0.49798036,-0.72300035,10.66951
128817310884475,1.007013,-2.352123,10.7964
128817330739617,-2.8326876,-1.977768,10.228986
128817350594466,-2.0702505,-0.6558911,9.644953
128817370449313,-0.21490514,-0.012994591,8.539545
128817390304161,0.197267,-0.23136047,7.2201343
128817410159010,0.18409605,-0.18181434,6.4770646
128817430013857,0.86187035,-0.037763342,6.87349
128817449875258,1.0889988,0.022189643,8.292228
128817469730235,0.083773874,0.43071723,9.658884
128817489585210,-0.5486755,1.3482642,10.068744
128817509440186,0.9985651,1.6163373,9.138929
128817529295163,2.502434,1.7673888,8.395384
128817549151805,2.287437,1.8291171,8.957262
128817569006909,1.5348159,1.0675288,9.323326
128817588862014,1.5499657,-0.07217078,8.660274
128817608716989,0.5250745,-0.017169036,9.207758
128817628569138,-0.2310979,1.2373015,10.711075
128817648424243,0.9696717,4.199358,11.703317
128817668279218,1.3568045,6.2892523,11.091398
128817688134322,-0.5547966,5.548035,12.058008
128817707989299,-0.02454564,4.079645,14.419556
128817727844274,3.115501,2.4099004,14.761233
128817747701682,3.4088614,-0.88868773,13.042746
128817767556787,3.7068167,-2.9871266,13.108705
128817787412018,4.7011395,-3.8239183,15.3780365
128817807267122,5.4159136,-4.6468096,17.720606
128817827122355,12.235511,-4.4419928,17.432058
128817846974824,5.3482666,-5.998712,11.892621
128817866830056,-2.2375886,-2.5018837,6.515286
128817886685161,-1.281868,-2.1833546,6.1872196
128817906540392,-3.4933496,-1.0597774,4.7624993
128817926375480,-2.915292,0.6782941,2.7678208
128817946229817,-0.9768186,0.83830273,2.342837
128817966084280,1.967864,-1.6082093,4.854259
128817985938616,2.6974463,1.1046258,6.043234
128818005793081,1.6864797,3.8342013,6.397327
128818025647416,1.326015,0.4718966,7.0720263
128818045501911,0.2660462,-1.5438347,5.8158107
128818065356376,0.5130418,-0.9113999,4.974397
128818085210839,0.85559607,-2.8658693,5.0449224
128818105065303,0.5162856,-8.732025,7.437028
128818124919768,0.34441325,-5.092886,13.465423
128818144781277,-0.97027546,-0.9853295,19.783592
128818164635869,-0.7577611,-4.2538557,17.953325
128818184490462,2.8809197,-7.4662147,15.13716
128818204345053,-3.0835044,2.3166187,14.226354
128818224199773,-13.826375,1.5012628,16.08496
128818244054366,-11.41771,-3.9742203,10.393843
128818263912686,-2.7408693,-0.0105092265,5.3562136
128818283767406,-1.7172511,0.8262742,7.028245
128818303622127,-5.8498597,-1.7519237,10.8339815
128818323476718,-9.172824,-2.171342,12.291372
128818343335886,-5.310049,-2.2876563,12.432051
128818363190735,-2.0855806,-0.9621976,11.321998
128818383045454,3.3098822,-0.0146933105,8.776347
128818402900302,2.828848,0.38187692,6.496623
128818422755023,-2.6976051,-3.5512187,6.4797482
128818442609577,-2.9490926,-4.526454,7.82546
128818462464425,-2.2388742,-2.7668433,8.200121
128818482319146,-0.912574,-0.9813913,7.9006
128818502173993,0.22666931,4.541248,7.2813067
128818522028841,-0.2155577,4.546733,8.318598
128818541883562,-1.1613293,2.8694713,10.0216
128818561738580,0.9950474,7.421931,9.160704
128818581593300,1.9372915,6.9560814,8.3359
128818601448149,-2.5032985,3.3606975,10.353374
128818621302868,-3.5638578,4.6259637,10.68686
128818641161851,0.054706395,6.0832305,9.7909775
128818661016700,1.0148988,5.535364,9.479525
128818680871547,1.7111027,4.4968667,8.850818
128818700726395,1.8663015,3.2852132,9.202618
128818720581244,2.146747,0.9708191,10.789425
128818740431838,3.7758458,-0.37523177,11.609914
128818760286558,4.317392,1.366512,12.905248
128818780141407,2.394443,1.7179581,17.965431
128818799996254,4.584304,-2.9175901,22.723394
128818819850974,16.559608,-4.6136456,23.16958
128818839705823,8.764361,-5.3019176,14.62321
128818859562962,-2.0929081,-4.950058,7.05551
128818879417810,-2.0635567,-3.9068258,5.012278
128818899272659,-0.14932612,-3.365842,4.4946165
128818919127508,0.26486412,-2.8242774,3.9897585
128818938978979,0.00907498,-0.7943295,4.366776
128818958833828,1.1992706,1.6077311,5.822966
128818978688545,-2.7043846,1.9516822,5.695743
128818998543265,-4.0734916,3.2603765,5.089127
128819018397986,-0.025205541,3.241285,5.1776476
128819038252833,1.8500096,2.4820538,5.490103
128819058108716,1.9379746,2.6480024,5.56897
128819077963565,4.257904,1.3990886,5.800901
128819097818412,7.9134903,-0.29089853,7.224644
128819117673132,6.540625,-0.49534988,11.558619
128819137527981,1.4099623,1.7121205,18.823864
128819157382750,6.4670696,0.05972432,21.393362
128819177237599,10.612978,-2.0029309,17.799398
128819197092448,1.4397328,-2.2282972,9.932581
128819216947297,-7.4691005,-4.285542,10.443881
128819236776114,-2.9483726,-10.072133,15.985825
128819256630451,-0.9931846,-9.711084,11.068464
128819276484786,-2.5939794,-2.3102841,1.927733
128819296339122,0.6365897,0.95473385,4.710343
128819316193459,-3.5905385,-0.5307158,10.12739
128819336047794,-6.339439,-4.5332823,13.131605
128819355897571,-5.221121,-5.7893653,14.457698
128819375751780,-3.5012386,-3.251141,12.161207
128819395605987,2.6850007,1.1794626,9.823125
128819415460323,4.3013783,1.7624632,7.7495675
128819435314532,-3.630219,-1.3910934,7.368693
128819455172318,-5.8625336,-0.73357415,7.6854444
128819475026526,-4.1353016,0.4800969,8.291987
128819494880735,-1.3303293,0.3846257,8.332399
128819514734942,1.724506,1.5466099,8.280837
128819534591733,2.4813578,2.005082,8.456371
128819554446070,1.4969939,0.64480716,9.195413
128819574300277,0.30892998,0.25023016,9.693335
128819594154485,-1.1285475,-0.038251966,9.434468
128819614008822,-0.9340582,0.31186476,8.14704
128819633863029,0.8189796,1.0663,7.532323
128819653722247,0.459598,0.61351025,8.550093
128819673576584,-0.459904,0.8834117,9.4058695
128819693430791,-0.50353473,1.5679058,9.517012
128819713284999,0.4871103,2.0038238,9.601864
128819733139336,1.0272907,1.9419345,9.552283
128819752996044,0.43175527,1.3845003,9.797188
128819772850380,-0.081226006,0.8862014,10.001705
128819792704717,-0.27561605,1.4943218,9.763442
128819812561485,-0.6995938,0.99363977,9.50263
128819832415822,-0.9117597,1.2644278,9.741991
128819852270159,-3.641592,0.120035164,11.725274
128819872125422,-4.3061266,-1.0691892,14.488116
128819891979759,-1.7868519,-3.4778678,14.25056
128819911834096,-2.1686878,-4.3216834,11.513768
128819931688433,-3.1806073,-4.4944797,10.518067
128819951550638,-0.8390052,-4.333702,11.817858
128819971405103,1.2949389,-4.448756,12.313755
128819991259568,1.7412533,-4.8093815,10.728165
128820011114033,0.30048877,-3.4487906,8.095209
128820030968498,-0.71563655,-2.3589609,7.10231
128820050823517,-0.31494704,-2.5955794,7.863891
128820070678110,0.63125634,-3.032407,8.829738
128820090532575,1.8163555,-2.3758786,9.106069
128820110387040,1.0487057,-1.2112565,8.557679
128820130241633,-0.057287127,-0.13384348,7.9892406
128820150096098,-0.15817073,0.19705226,7.7511497
128820169961259,-0.5923735,0.0060955095,7.6133885
128820189815980,-0.8284851,0.07512316,7.8195333
128820209670701,-0.8152477,-0.24566175,8.360913
128820229525550,0.23088011,-0.69286126,11.416104
128820249381087,2.3057077,-1.3053764,13.888179
128820269235936,-0.9336673,0.6327899,14.38474
128820289090783,-3.7558584,0.08516362,12.5563
128820308945631,0.32262674,0.087418035,8.497011
128820328800480,2.4391665,0.11801226,7.163996
128820348655327,1.0167631,-0.9681424,8.127312
128820368508755,-2.4361484,-3.0848615,9.181837
128820388363476,-2.5277412,-3.5143511,9.716515
128820408218323,0.098160975,-2.7518106,9.940696
128820428073171,1.7944374,-1.662498,9.711099
128820447927892,2.110191,-0.34681475,9.472221
128820467790446,1.6626825,-0.3282913,10.218613
128820487645422,1.8473725,0.1211464,10.7018385
128820507500527,-2.1066778,-0.652052,9.644955
128820527355502,-5.2074866,-2.8268187,8.869528
128820547210606,-0.35075602,-1.802186,9.215917
128820567065583,2.9893792,-0.0884148,9.985775
128820586925783,1.039622,0.0011211429,10.109835
128820606781015,-0.6920545,-0.24082492,9.76116
128820626636120,-0.28536767,-0.2667781,9.873974
128820646491351,-0.10148782,-0.5454708,9.843378
128820666348448,-0.20250547,-0.6070088,9.501451
128820686203681,-0.14271289,-0.42377216,9.562856
128820706058912,-0.07462319,-0.43936136,9.762403
128820725914272,-0.024767386,-0.5060285,9.663024
128820745769505,-0.055506863,-0.5703664,9.648136
128820765622092,0.2958422,-0.460866,9.83152
128820785477325,0.4771849,-0.36281195,9.839764
128820805332686,0.23868574,-0.32312775,9.711458
128820825187919,-0.0965836,-0.3223553,9.747685
128820845043280,-0.1200143,-0.1993985,9.702393
128820864898513,-0.051514186,-0.080228925,9.546069
128820884740256,-0.06922986,-0.11266198,9.718957
128820904595105,0.11815871,-0.13816139,9.796712
128820924449954,0.25077665,-0.054933056,9.723427
128820944304803,0.15386203,-0.0680001,9.732645
128820964156646,0.059016466,-0.13704565,9.753336
128820984011367,-0.018379968,-0.06214456,9.732782
128821003866088,-0.10722628,-0.039175164,9.803865
128821023720809,-0.22778843,-0.10644396,9.865355
128821043575530,-0.17401172,-0.17611232,9.694757
128821063420523,-0.11911411,-0.27619922,9.59551
128821083275116,-0.02646379,-0.32016054,9.718255
128821103129581,0.1061093,-0.26985532,9.780792
128821122984174,0.005996173,-0.21772976,9.72371
128821142838767,-0.3168716,-0.25243986,9.74357
128821162693360,-0.41252115,-0.28332245,9.760125
128821182542035,-0.29061988,-0.29858097,9.717697
128821202396479,-0.15725361,-0.34111908,9.585526
128821222250944,0.023546755,-0.37392816,9.752072
128821242105409,0.046686705,-0.33858192,9.766806
128821261957483,-0.11043742,-0.2600556,9.674679
128821281811948,-0.23081982,-0.25376675,9.751756
128821301666411,-0.14085062,-0.2206478,9.771556
128821321520747,-0.0588995,-0.20398527,9.722572
128821341375212,-0.07417387,-0.1799289,9.681198
128821361229675,-0.17355356,-0.17938887,9.626426
128821381088768,-0.18498369,-0.18543755,9.750664
128821400943233,-0.23294348,-0.26232934,9.753378
128821420797696,-0.13692664,-0.31437576,9.709259
128821440652160,0.10005621,-0.32491642,9.825438
128821460506625,0.1290169,-0.30929682,9.865889
128821480360064,-0.12938313,-0.2960843,9.764779
128821500214400,-0.2473156,-0.23250346,9.741419
128821520068865,-0.16370094,-0.23193876,9.732111
128821539923328,-0.17515874,-0.27125868,9.710167
128821559776550,-0.071592644,-0.33052525,9.742782
128821579631015,0.015169353,-0.38047177,9.75259
128821599485350,-0.091490425,-0.38781214,9.713385
128821619339814,-0.17755689,-0.3400067,9.718046
128821639194151,-0.17554906,-0.25168473,9.722431
128821659048486,-0.22439231,-0.22507037,9.646678
128821678907968,-0.21713732,-0.25025183,9.735732
128821698762433,-0.19428048,-0.31498018,9.910214
128821718616896,-0.16746676,-0.37701577,9.801613
128821738471360,-0.16700383,-0.37981075,9.639178
128821758325697,-0.06378874,-0.37413803,9.768868
128821778178228,-0.043762144,-0.39893466,9.777794
128821798032692,-0.21098982,-0.40139753,9.702503
128821817887157,-0.23473582,-0.36184373,9.759582
128821837741620,-0.18821663,-0.34019703,9.812105
128821857594503,-0.1183565,-0.3028655,9.710581
128821877448840,-0.1596074,-0.32887745,9.664489
128821897303303,-0.2340163,-0.37537816,9.657628
128821917157639,-0.15253907,-0.35050792,9.753683
128821937011976,-0.15207966,-0.34564668,9.747417
128821956866439,-0.20690659,-0.39017418,9.767217
128821976723407,-0.16713975,-0.36262864,9.798819
128821996577744,-0.103691615,-0.3088345,9.773963
128822016432207,-0.14335312,-0.30054337,9.723293
128822036286543,-0.20035274,-0.2751668,9.756616
128822056141008,-0.18213183,-0.31545866,9.785465
128822075996893,-0.17162475,-0.34876156,9.695403
128822095851357,-0.12803319,-0.3795723,9.705931
128822115705822,-0.015544359,-0.32376653,9.748106
128822135560285,-0.05968168,-0.287379,9.800718
128822155419973,-0.12623599,-0.2273605,9.809731
128822175274566,-0.21887209,-0.24250285,9.829038
128822195129157,-0.18808447,-0.23071018,9.807246
128822214983749,-0.082660355,-0.27309418,9.803319
128822234838342,-0.08032554,-0.35087365,9.768912
128822254692933,-0.048148964,-0.31491947,9.833188
128822274555729,-0.11374774,-0.32044145,9.813376
128822294410450,-0.1372953,-0.30035672,9.784737
128822314265169,-0.22834767,-0.31616265,9.760266
128822334120017,-0.11273741,-0.27628592,9.827077
128822353974738,-0.023506472,-0.28278396,9.77088
128822373830652,-0.045051914,-0.35361713,9.815973
128822393685500,-0.019950248,-0.4246248,9.924246
128822413540221,0.095362216,-0.38639718,9.903213
128822433395068,0.047057297,-0.3286181,9.862073
128822453249916,-0.08322637,-0.3183939,9.947759
128822473104637,-0.09730011,-0.21658616,9.823505
128822492960985,-0.1766075,-0.17322578,9.721974
128822512815833,-0.26972812,-0.22304697,9.876933
128822532670682,-0.09924113,-0.19037327,9.880888
128822552525529,-0.04802083,-0.22540663,9.729207
128822572381103,0.055351246,-0.35666865,9.7065935
128822592236080,0.13063683,-0.41746643,9.782952
128822612091055,0.020573938,-0.47959152,10.03026
128822631945903,-0.057530392,-0.31977293,9.964799
128822651800880,-0.19979347,-0.0940892,9.743686
128822671654094,-0.30799592,0.004790559,9.767924
128822691508942,-0.3902745,-0.027292049,9.802165
128822711363791,-0.23388788,-0.12000431,9.782582
128822731218638,0.036043067,-0.2247763,9.886845
128822751073486,0.20876297,-0.25929376,9.880697
128822770928335,0.092586376,-0.22428396,9.826804
128822790782395,-0.017438726,-0.20360903,9.834385
128822810637115,-0.00461514,-0.15439272,9.910234
128822830491964,-0.026066298,-0.1138934,9.84166
128822850346811,0.01590312,-0.076179415,9.791098
128822870192166,-0.07050519,-0.054716557,9.806001
128822890046759,-0.028934445,-0.060255617,9.845673
128822909901350,-0.07980841,-0.11743332,9.863464
128822929755942,-0.02180865,-0.15590134,9.8247795
128822949610535,0.033258572,-0.22014718,9.863233
128822969464902,0.044703305,-0.26991358,9.93955
128822989319494,-0.016929813,-0.18180542,9.828141
128823009174087,-0.08323764,-0.12408285,9.805978
128823029028806,-0.057050552,-0.060458064,9.829544
128823048883398,-0.04640886,-0.061667383,9.88009
128823068737991,0.044445917,-0.101362035,9.838108
